<?xml version="1.0" encoding="UTF-8"?>
<Bundle xmlns="http://hl7.org/fhir">
  <id value="bundle-abrysvo"/>
  <meta>
    <versionId value="1"/>
    <lastUpdated value="2024-10-17T00:00:00"/>
    <profile value="http://hl7.org/fhir/uv/emedicinal-product-info/StructureDefinition/Bundle-uv-epi"/>
  </meta>
  <language value="en"/>
  <identifier>
    <system value="https://mcp.fda.gov.tw/"/>
    <value value="eda6398d-8f84-42f0-8339-b1cb5a584d59"/>
  </identifier>
  <type value="document"/>
  <timestamp value="2024-10-17T00:00:00"/>

  <entry>
    <fullUrl value="urn:uuid:7a1a7106-403a-43df-9f2b-16050988a7d2"/>
    <resource>
      <Composition>
        <id value="7a1a7106-403a-43df-9f2b-16050988a7d2"/>
        <meta>
          <profile value="http://hl7.org/fhir/uv/emedicinal-product-info/StructureDefinition/Composition-uv-epi"/>
        </meta>
        <language value="en"/>
        <version value="1"/>
        <identifier>
          <system value="https://mcp.fda.gov.tw/" />
          <value value="a505bdff-01e4-4466-9cbc-8a7f6748ed4b" />
        </identifier>
        <status value="final"/>

        <contained>
          <Binary>
          <id value="image1"/>
          <contentType value="image/png"/>
          <data value=""/>
          </Binary>
        </contained>
        <contained>
          <Binary>
          <id value="image2"/>
          <contentType value="image/png"/>
          <data value=""/>
          </Binary>
        </contained>
        <contained>
          <Binary>
          <id value="image3"/>
          <contentType value="image/png"/>
          <data value=""/>
          </Binary>
        </contained>
        <contained>
          <Binary>
          <id value="image4"/>
          <contentType value="image/png"/>
          <data value=""/>
          </Binary>
        </contained>
        <extension url="http://hl7.org/fhir">
          <valueReference>
          <reference value="#image1"/>
          </valueReference>
          </extension>
        <extension url="http://hl7.org/fhir">
          <valueReference>
          <reference value="#image2"/>
          </valueReference>
          </extension>
        <extension url="http://hl7.org/fhir">
          <valueReference>
          <reference value="#image3"/>
          </valueReference>
          </extension>
        <extension url="http://hl7.org/fhir">
          <valueReference>
          <reference value="#image4"/>
          </valueReference>
          </extension>

        <type>
          <coding>
            <system value="2.16.840.1.113883.6.1"/>
            <code value="42229-5"/>
            <display value="PACKAGE INSERT"/>
          </coding>
        </type>
        <subject>
          <reference value="urn:uuid:1ea89061-dc21-4e27-a888-30ac92d36d54"/>
        </subject>
        <author>
          <reference value="urn:uuid:8034cbe0-622b-4fe3-bbdf-0ed521bb06d0"/>
        </author>
        <title value="Abrysvo LLD SPC 20240318-2"/>
        
        <section>
          <title value="PACKAGE INSERT"/>
          <code>
            <coding>
              <system value="2.16.840.1.113883.6.1"/>
              <code value="42229-5"/>
              <display value="PACKAGE INSERT"/>
            </coding>
          </code>
          <text>
            <status value="generated"/>
            <div xmlns="http://www.w3.org/1999/xhtml">
              <p><strong></strong></p>
              <p><strong>Abrysvo, Respiratory Syncytial Virus Vaccine, powder and solvent for solution for injection</strong></p>
              <p>001267</p>
              <p></p>
            </div>
          </text>
        </section>

        <section id="49e6368c-5bc0-4c3b-b1fe-4fae9b8fceba">
            <title value=""/>
            <code>
              <coding>
                <system value="2.16.840.1.113883.6.1"/>
                <code value="42229-5"/>
                <display value="PHARMACEUTICAL PARTICULARS"/>
              </coding>
            </code>
            <text>
              <status value="generated"/>
              <div xmlns="http://www.w3.org/1999/xhtml">
                <p><strong>1. </strong></p>
                <p><strong>1.1</strong></p>
                <p> (0.5 mL) </p>
                <p>RSV  A  F <sup>1,2</sup> 60 </p>
                <p>RSV  B  F <sup>1,2</sup> 60 </p>
                <p>RSV </p>
                <p><sup>1</sup> F</p>
                <p><sup>2</sup> DNA </p>
                <p><strong>1.2</strong></p>
                <p><u></u></p>
                <p>Trometamol</p>
                <p>Trometamol hydrochloride</p>
                <p>Sucrose</p>
                <p>Mannitol</p>
                <p> 80Polysorbate 80</p>
                <p></p>
                <p> pH </p>
                <p><u></u></p>
                <p></p>
                <p><strong>1.3</strong></p>
                <p></p>
                <p><strong>1.4</strong></p>
                <p></p>
                <p></p>
              </div>
            </text>
          </section>

          <section id="0d11df54-23a1-4208-b389-ec9cdd621da6">
            <title value=""/>
            <code>
              <coding>
                <system value="2.16.840.1.113883.6.1"/>
                <code value="34067-9"/>
                <display value="INDICATIONS AND USAGE"/>
              </coding>
            </code>
            <text>
              <status value="generated"/>
              <div xmlns="http://www.w3.org/1999/xhtml">
                <p><strong>2.  </strong></p>
                <p>  6  (lower respiratory tract diseaseLRTD)</p>
                <p> 60  (lower respiratory tract diseaseLRTD)</p>
                <p>Abrysvo</p>
              </div>
            </text>
          </section>

          <section id="7a9d33f5-6389-4cc7-8314-d6276016e973">
            <title value=""/>
            <code>
              <coding>
                <system value="2.16.840.1.113883.6.1"/>
                <code value="34068-7"/>
                <display value="DOSAGE AND ADMINISTRATION"/>
              </coding>
            </code>
            <text>
              <status value="generated"/>
              <div xmlns="http://www.w3.org/1999/xhtml">
                <p><strong>3. </strong></p>
                <p><strong>3.1</strong></p>
                <p><u></u></p>
                <p><u><i></i></u></p>
                <p> 24  36  0.5  <a href="#a0bd7175-e0b0-4945-ae6c-4de076fde3f7">5.1</a>  <a href="#1a569a49-8b1e-4951-b27c-dcf08596f5d1">12</a> </p>
                <p><u><i>60 </i></u></p>
                <p> 0.5 </p>
                <p><u><i></i></u></p>
                <p> 18  Abrysvo  <a href="#1a569a49-8b1e-4951-b27c-dcf08596f5d1">12</a> </p>
                <p><u></u></p>
                <p>Abrysvo </p>
                <p></p>
                <p> <a href="#7a9d33f5-6389-4cc7-8314-d6276016e973">3.2</a> </p>
                <p><strong>3.2</strong></p>
                <p> Abrysvo </p>
                <p> Abrysvovial adaptor</p>
                <p><strong></strong></p>
                <p><u></u></p>
                <p>
                <img src="#image1"
                alt="Figure 1"
                style="width:7in;height:2.5in"/> 
                </p>
                <table>
                  <thead>
                  <tr class="header">
                  <th align="left"><img src="#image2" alt="Figure 2" style="width:2in;height:2in"/></th>
                  <th align="left"><p><strong> 1. vial adaptor</strong></p>
                  <p></p>
                  <p></p></th>
                  </tr>
                  </thead>
                  <tbody>
                  </tbody>
                  </table>
                <table>
                  <thead>
                  <tr class="header">
                  <th align="left"><img src="#image3" alt="Figure 3" style="width:2in;height:2in"/></th>
                  <th align="left"><p><strong> 2.  Abrysvo</strong></p>
                  <p>Luer lockLuer lock</p>
                  <p></p>
                  <p> 1  2 </p></th>
                  </tr>
                  </thead>
                  <tbody>
                  </tbody>
                  </table>
                <table>
                  <thead>
                  <tr class="header">
                  <th align="left"><img src="#image4" alt="Figure 4" style="width:2in;height:2in"/></th>
                  <th align="left"><p><strong> 3. </strong></p>
                  <p> Abrysvo  0.5 mL</p>
                  <p></p>
                  <p></p></th>
                  </tr>
                  </thead>
                  <tbody>
                  </tbody>
                  </table>
                  <p></p>
                  <p><u></u></p>
                  <p></p>
            </div>
            </text>
          </section>

          <section id="a9b31399-cbd4-4559-8ceb-81a872634bb5">
            <title value=""/>
            <code>
              <coding>
                <system value="2.16.840.1.113883.6.1"/>
                <code value="34070-3"/>
                <display value="CONTRAINDICATIONS"/>
              </coding>
            </code>
            <text>
              <status value="generated"/>
              <div xmlns="http://www.w3.org/1999/xhtml">
                <p><strong>4.</strong></p>
                <p> 1.2 </p>
              </div>
            </text>
          </section>

          <section id="a0bd7175-e0b0-4945-ae6c-4de076fde3f7">
            <title value=""/>
            <code>
              <coding>
                <system value="2.16.840.1.113883.6.1"/>
                <code value="43685-7"/>
                <display value="WARNINGS AND PRECAUTIONS"/>
              </coding>
            </code>
            <text>
              <status value="generated"/>
              <div xmlns="http://www.w3.org/1999/xhtml">
                <p><strong>5. </strong></p>
                <p><strong>5.1/</strong></p>
                <p><u>HypersensitivityAnaphylaxis</u></p>
                <p></p>
                <p><u></u></p>
                <p></p>
                <p><u></u></p>
                <p></p>
                <p><u></u></p>
                <p>Abrysvo </p>
                <p><u></u></p>
                <p>Abrysvo</p>
                <p><u>24</u></p>
                <p>Abrysvo242436Abrysvo <a href="#7a9d33f5-6389-4cc7-8314-d6276016e973">3.1</a>  <a href="#1a569a49-8b1e-4951-b27c-dcf08596f5d1">12</a> </p>
                <p><u></u></p>
                <p></p>
                <p><u></u></p>
                <p>1 mmol (23 mg) </p>
                <b>5.3</b>
                <p>Abrysvo </p>
              </div>
              </text>
          </section>

          <section id="74fcbe0a-fb3e-4691-aaa3-5b38ebfdfab3">
            <title value=""/>
            <code>
              <coding>
                <system value="2.16.840.1.113883.6.1"/>
                <code value="43684-0"/>
                <display value="USE IN SPECIFIC POPULATIONS SECTION"/>
              </coding>
            </code>
            <text>
              <status value="generated"/>
              <div xmlns="http://www.w3.org/1999/xhtml">
                <p><strong>6. </strong></p>
                <p><strong>6.1</strong></p>
                <p>4000/</p>
                <p> Abrysvo  <a href="#a1488bbb-121e-4a03-b077-89a9a6cce958">10.3</a> </p>
                <p><u></u></p>
                <p> 2 Abrysvo ( Al[OH]<sub>3</sub>) ( 0.5 mL) NZW  21  7  10  24  Abrysvo Al(OH)<sub>3</sub>-</p>
                <p>3 1Abrysvo14%13%1</p>
                <p> 24 Abrysvo (37%35% 1 Abrysvo 2016% 1695% 1815% 1554%1745% 2036%</p>
                <p><strong>6.2</strong></p>
                <p> Abrysvo Abrysvo </p>
                <p><strong>6.3</strong></p>
                <p> Abrysvo </p>
                <p> <a href="#a1488bbb-121e-4a03-b077-89a9a6cce958">10.3</a> </p>
          </div>
            </text>
          </section>

  <section id="58d099bc-d380-4825-bc1c-92cea8426dcd">
    <title value=""/>
    <code>
      <coding>
        <system value="2.16.840.1.113883.6.1"/>
        <code value="34073-7"/>
        <display value="DRUG INTERACTIONS SECTION"/>
      </coding>
    </code>
    <text>
      <status value="generated"/>
      <div xmlns="http://www.w3.org/1999/xhtml">
        <p><strong>7. </strong></p>
<p>Abrysvo QIV 65  Abrysvo  RSV A  RSV B  A  B </p>
<p> Abrysvo  (Tdap)  RSV ARSV B</p>
  </div>
    </text>
  </section>

<section id="60d806f4-d64e-49a6-9560-497c900eea1d">
  <title value="/"/>
  <code>
    <coding>
      <system value="2.16.840.1.113883.6.1"/>
      <code value="34084-4"/>
      <display value="ADVERSE REACTIONS SECTION"/>
    </coding>
  </code>
  <text>
    <status value="generated"/>
    <div xmlns="http://www.w3.org/1999/xhtml">
      <p><strong>8 /</strong></p>
<p><strong>8.1/</strong></p>
<p><u></u></p>
<p><u><i></i></u></p>
<p>243641%31%27%23</p>
<p><u><i>60</i></u></p>
<p>6011%12</p>
<p><u></u></p>
<p> 3 2436n=3,68260n=18,575Abrysvo</p>
<p></p>
<p>1/10</p>
<p> (1/100  &lt;1/10)</p>
<p>1/1000  &lt;1/100</p>
<p>1/10,000  &lt;1/1,000</p>
<p>&lt;1/10,000</p>
<p></p>
<p></p>
<p><strong> 1 Abrysvo </strong></p>
<table>
<thead>
<tr class="header">
<th align="left"></th>
<th align="left"><p></p>
<p><strong>49 </strong></p></th>
<th align="left"><p></p>
<p><strong>60 </strong></p></th>
</tr>
</thead>
<tbody>
<tr class="odd">
<td align="left"></td>
</tr>
<tr class="even">
<td align="left"></td>
<td align="left"></td>
<td align="left"></td>
</tr>
<tr class="odd">
<td align="left"></td>
</tr>
<tr class="even">
<td align="left"></td>
<td align="left"></td>
<td align="left"></td>
</tr>
<tr class="odd">
<td align="left">-( Guillain-Barr syndrome)</td>
<td align="left"></td>
<td align="left"><sup>a</sup></td>
</tr>
<tr class="even">
<td align="left"></td>
</tr>
<tr class="odd">
<td align="left"></td>
<td align="left"></td>
<td align="left"></td>
</tr>
<tr class="even">
<td align="left"></td>
</tr>
<tr class="odd">
<td align="left"></td>
<td align="left"></td>
<td align="left"></td>
</tr>
<tr class="even">
<td align="left"></td>
<td align="left"></td>
<td align="left"></td>
</tr>
<tr class="odd">
<td align="left"></td>
<td align="left"></td>
<td align="left"></td>
</tr>
</tbody>
</table>
<p><sup>a</sup>  60 -- (Miller Fisher syndrome)  Abrysvo  7  8  Abrysvo  8  14 -</p>
<p><u></u></p>
<p>/</p>
</div>
  </text>
</section>

<section id="d9e74631-082e-4758-8f76-98575d4207ad">
  <title value=""/>
  <code>
    <coding>
      <system value="2.16.840.1.113883.6.1"/>
      <code value="34088-5"/>
      <display value="OVERDOSAGE SECTION"/>
    </coding>
  </code>
  <text>
    <status value="generated"/>
    <div xmlns="http://www.w3.org/1999/xhtml">
      <p><strong>9. </strong></p>
      <p>Abrysvo </p>
      <p>Abrysvo </p>
</div>
  </text>
</section>

<section id="a1488bbb-121e-4a03-b077-89a9a6cce958">
  <title value=""/>
  <code>
    <coding>
      <system value="2.16.840.1.113883.6.1"/>
      <code value="34090-1"/>
      <display value="CLINICAL PHARMACOLOGY SECTION"/>
    </coding>
  </code>
  <text>
    <status value="generated"/>
    <div xmlns="http://www.w3.org/1999/xhtml">
      <p><strong>10. </strong></p>
      <p><strong>10.1</strong></p>
      <p>Abrysvo  RSV-A  RSV-B  RSV  F  F  RSV  F  RSV </p>
      <p><strong>10.2</strong></p>
      <p>ATCJ07BX05</p>
      <p> 24  36  Abrysvo  RSV  RSV 60 </p>
      <p><strong>10.3</strong></p>
      <p><strong>10.3.1</strong></p>
      <p> Abrysvo </p>
    </div>
  </text>
</section>

<section id="3d4a8843-cdf5-4f79-9567-40999f68f363">
  <title value=""/>
  <code>
    <coding>
      <system value="2.16.840.1.113883.6.1"/>
      <code value="43682-4"/>
      <display value="PHARMACOKINETICS SECTION"/>
    </coding>
  </code>
  <text>
    <status value="generated"/>
    <div xmlns="http://www.w3.org/1999/xhtml">
      <p><strong>11. </strong></p>
      <p></p>
    </div>
  </text>
</section>

<section id="1a569a49-8b1e-4951-b27c-dcf08596f5d1">
  <title value=""/>
  <code>
    <coding>
      <system value="2.16.840.1.113883.6.1"/>
      <code value="34092-7"/>
      <display value="CLINICAL STUDIES SECTION"/>
    </coding>
  </code>
  <text>
    <status value="generated"/>
    <div xmlns="http://www.w3.org/1999/xhtml">
      <p><strong>12. </strong></p>
      <p><strong><u><i> 6 </i></u></strong></p>
      <p> 1  3 1:1 Abrysvo  24  36 </p>
      <p>RSV:RT-PCRSpO<sub>2</sub> &lt;95%RSV RSVSpO<sub>2</sub> &lt;93%ICU &gt;4 //</p>
      <p>vaccine efficacyVEAbrysvo RSV (relative risk reduction) 90120150  180  RSV  RSV </p>
      <p> Abrysvo 65% 20% 29% / 29  16-45  0.2%  18 4.3%  20  31  2  24  0  36  4  39  1  27  3  43  6 </p>
      <p> 2  3 </p>
      <p><strong> 2 Abrysvo  6  RSV   1</strong></p>
      <table>
<tbody>
<tr class="odd">
<td align="left"></td>
<td align="left"><p>Abrysvo</p>
<p></p>
<p><strong>N=3 495</strong></p></td>
<td align="left"><p></p>
<p></p>
<p><strong>N=3 480</strong></p></td>
<td align="left"><p>VE %</p>
<p>(CI)<sup>a</sup></p></td>
</tr>
<tr class="even">
<td align="left">90 </td>
<td align="left">6</td>
<td align="left">33</td>
<td align="left">81.8 (40.6, 96.3)</td>
</tr>
<tr class="odd">
<td align="left">120 </td>
<td align="left">12</td>
<td align="left">46</td>
<td align="left">73.9 (45.6, 88.8)</td>
</tr>
<tr class="even">
<td align="left">150 </td>
<td align="left">16</td>
<td align="left">55</td>
<td align="left">70.9 (44.5, 85.9)</td>
</tr>
<tr class="odd">
<td align="left">180 </td>
<td align="left">19</td>
<td align="left">62</td>
<td align="left">69.4 (44.3, 84.1)</td>
</tr>
</tbody>
      </table>
      <p>CI = VE = </p>
      <p><sup>a</sup> 90  CI  99.5% 97.58% CI</p>
      <p><strong> 3 Abrysvo  6  RSV   1</strong></p>
      <table>
<tbody>
<tr class="odd">
<td align="left"></td>
<td align="left"><p>Abrysvo</p>
<p></p>
<p><strong>N=3 495</strong></p></td>
<td align="left"><p></p>
<p></p>
<p><strong>N=3 480</strong></p></td>
<td align="left"><p>VE %</p>
<p>(CI)<sup>a</sup></p></td>
</tr>
<tr class="even">
<td align="left">90 </td>
<td align="left">24</td>
<td align="left">56</td>
<td align="left">57.1 (14.7, 79.8)</td>
</tr>
<tr class="odd">
<td align="left">120 </td>
<td align="left">35</td>
<td align="left">81</td>
<td align="left">56.8 (31.2, 73.5)</td>
</tr>
<tr class="even">
<td align="left">150 </td>
<td align="left">47</td>
<td align="left">99</td>
<td align="left">52.5 (28.7, 68.9)</td>
</tr>
<tr class="odd">
<td align="left">180 </td>
<td align="left">57</td>
<td align="left">117</td>
<td align="left">51.3 (29.4, 66.8)</td>
</tr>
</tbody>
      </table>
      <p>CI = VE = </p>
      <p><sup>a</sup> 90  CI  99.5% 97.58% CI</p>
      <p><b><u><i>60</i></u></b></p>
      <p> 2  3  Abrysvo  60  RSV </p>
      <p> RSV  RT-PCR  7  1 25 /[resting baseline] 15%</p>
      <p>1:1 Abrysvon=18,488) n=18,479 60-69 63%70-7932% 80 5% 52%  1 16% 9%7%2%</p>
      <p>VE RSV Abrysvo  RSV  (relative risk reduction)</p>
      <p> Abrysvo 51% 80% 12% 41% / 67 59 - 95 </p>
      <p> RSV  Abrysvo  RSV  2  3 </p>
      <p> 4 </p>
      <p><strong> 4 Abrysvo  RSV    60    2</strong></p>
      <table>
<tbody>
<tr class="odd">
<td align="left"></td>
<td align="left"><p>Abrysvo</p>
<p></p>
<p><strong>N=18,058</strong></p></td>
<td align="left"><p></p>
<p></p>
<p><strong>N=18,076</strong></p></td>
<td align="left"><p>VE (%)</p>
<p>(95% CI)</p></td>
</tr>
<tr class="even">
<td align="left"> RSV  2 <sup>a</sup></td>
<td align="left">15</td>
<td align="left">43</td>
<td align="left">65.1 (35.9, 82.0)</td>
</tr>
<tr class="odd">
<td align="left"> RSV  3 <sup>b</sup></td>
<td align="left">2</td>
<td align="left">18</td>
<td align="left">88.9 (53.6, 98.7)</td>
</tr>
</tbody>
      </table>
      <p>CI - RSV VE - </p>
      <p><sup>a</sup> RSV  AAbrysvo n=3 n=16VE  81.3% (CI 34.5, 96.5)  RSV  BAbrysvo n=12 n=26VE  53.8% (CI 5.2, 78.8)</p>
      <p><sup>b</sup>  RSV  AAbrysvo n=1 n=5VE  80.0% (CI -78.7, 99.6)  RSV  BAbrysvo n=1 n=12VE  91.7% (CI 43.7, 99.8)</p>
</div>
  </text>
</section>

<section id="863bfbf5-a9d0-45bc-87c4-7b3c9168746f">
  <title value=""/>
  <code>
    <coding>
      <system value="2.16.840.1.113883.6.1"/>
      <code value="34069-5"/>
      <display value="HOW SUPPLIED SECTION"/>
    </coding>
  </code>
  <text>
    <status value="generated"/>
    <div xmlns="http://www.w3.org/1999/xhtml">
      <p><strong>13. </strong></p>
      <p><strong>13.1</strong></p>
      <p><u></u></p>
      <p>1  1 </p>
      <p><u></u></p>
      <p> 1  1 /</p>
      <p><u></u></p>
      <p></p>
      <p><u></u></p>
      <p> 1 1 1  1 1 </p>
      <p> 5 5 5  5 5 </p>
      <p></p>
      <p><strong>13.2</strong></p>
      <p></p>
      <p><strong>13.3</strong></p>
      <p>2 - 8</p>
      <p></p>
      <p> 8  30  5  Abrysvo</p>
      <p><u></u></p>
      <p>Abrysvo  15  30  4 </p>
      <p> 15  30  4 </p>
</div>
  </text>
</section>

<section id="4ba4dd56-952d-4c03-8596-bc0bef71238c">
  <title value=""/>
  <code>
    <coding>
      <system value="2.16.840.1.113883.6.1"/>
      <code value="42229-5"/>
      <display value="SPL UNCLASSIFIED SECTION"/>
    </coding>
  </code>
  <text>
    <status value="generated"/>
    <div xmlns="http://www.w3.org/1999/xhtml">
      <p><strong>15. </strong></p>
      <p>SPC 20240318-2</p>
      <p>Pfizer Manufacturing Belgium N.V.</p>
      <p> Rijksweg 12, 2870 Puurs-Sint-Amands, Belgium</p>
      <p>Pfizer Manufacturing Belgium N.V.</p>
      <p> Rijksweg 12, 2870 Puurs-Sint-Amands, Belgium</p>
      <p></p>
      <p>Hospira, Inc.</p>
      <p> 1776 North Centennial DriveMcPherson, KS 67460, USA</p>
      <p> </p>
      <p> : 1004243</p>
</div>
  </text>
</section>
</Composition>
</resource>
</entry>

  <entry>
    <fullUrl value="urn:uuid:8034cbe0-622b-4fe3-bbdf-0ed521bb06d0"/>
    <resource>
      <Organization>
        <id value="8034cbe0-622b-4fe3-bbdf-0ed521bb06d0"/>
        <meta>
          <profile value="http://hl7.org/fhir/uv/emedicinal-product-info/StructureDefinition/Organization-uv-epi"/>
        </meta>
        <identifier>
          <use value="official"/>
          <system value="https://mcp.fda.gov.tw/"/>
          <value value="0c569c77-9667-40cb-b733-4b3c6b385630"/>
        </identifier>
        <active value="true"/>
        <type>
          <coding>
            <system value="https://spor.ema.europa.eu/rmswi"/>
            <code value="220000000034"/>
            <display value="Marketing authorisation holder"/>
          </coding>
        </type>
        <name value="Pfizer Limited"/>
        <contact>
          <address>
            <use value="work"/>
            <type value="physical"/>
            <text value="42, 43F., No. 100, Songren Road, Xinyi District, Taipei City, Taiwan"/>
            <line value="42, 43F., No. 100, Songren Road, Xinyi District"/>
            <city value="Taipei City"/>
            <country value="TW"/>
          </address>
        </contact>
      </Organization>
    </resource>
  </entry>

  <entry>
    <fullUrl value="urn:uuid:82eaaeab-bb28-4082-993c-d55e52ce9284"/>
    <resource>
      <Organization>
        <id value="82eaaeab-bb28-4082-993c-d55e52ce9284"/>
        <meta>
          <profile value="http://hl7.org/fhir/uv/emedicinal-product-info/StructureDefinition/Organization-uv-epi"/>
        </meta>
        <identifier>
          <use value="official"/>
          <system value="https://mcp.fda.gov.tw/"/>
          <value value="65ab5295-97dd-401a-b01d-0e66983b4904"/>
        </identifier>
        <active value="true"/>
        <type>
          <coding>
            <system value="https://spor.ema.europa.eu/rmswi"/>
            <code value="220000000033"/>
            <display value="Manufacturer"/>
          </coding>
        </type>
        <name value="Pfizer Manufacturing Belgium N.V."/>
        <contact>
          <address>
            <use value="work"/>
            <type value="physical"/>
            <text value="Rijksweg 12, 2870 Puurs-Sint-Amands, Antwerp, Belgium"/>
            <line value="Rijksweg 12, 2870 Puurs-Sint-Amands"/>
            <city value="Antwerp"/>
            <country value="DE"/>
          </address>
        </contact>
      </Organization>
    </resource>
  </entry>

  <entry>
    <fullUrl value="urn:uuid:dfdcd278-7df6-4100-af64-0e622f532a7c"/>
    <resource>
      <Organization>
        <id value="dfdcd278-7df6-4100-af64-0e622f532a7c"/>
        <meta>
          <profile value="http://hl7.org/fhir/uv/emedicinal-product-info/StructureDefinition/Organization-uv-epi"/>
        </meta>
        <identifier>
          <use value="official"/>
          <system value="https://mcp.fda.gov.tw/"/>
          <value value="957a0597-67e1-4fbd-aa49-5db6786eaa2b"/>
        </identifier>
        <active value="true"/>
        <type>
          <coding>
            <system value="https://spor.ema.europa.eu/rmswi"/>
            <code value="220000000033"/>
            <display value="Manufacturer"/>
          </coding>
        </type>
        <name value="Hospira, Inc."/>
        <contact>
          <address>
            <use value="work"/>
            <type value="physical"/>
            <text value="1776 North Centennial Drive McPherson, KS 67460, USA"/>
            <line value="1776 North Centennial Drive McPherson"/>
            <city value="Kansas"/>
            <country value="US"/>
          </address>
        </contact>
      </Organization>
    </resource>
  </entry>
  
  <entry>
    <fullUrl value="urn:uuid:8e763d2e-99fb-475f-8852-75516d4efae6"/>
    <resource>
      <RegulatedAuthorization>
        <id value="8e763d2e-99fb-475f-8852-75516d4efae6"/>
        <meta>
          <profile value="http://hl7.org/fhir/uv/emedicinal-product-info/StructureDefinition/RegulatedAuthorization-uv-epi"/>
        </meta>
        <identifier>
          <use value="official"/>
          <system value="https://www.mhra.gov.uk/"/>
          <value value="001267"/>
        </identifier>
        <subject>
          <reference value="urn:uuid:1ea89061-dc21-4e27-a888-30ac92d36d54"/>
        </subject>
        <type>
          <coding>
            <system value="https://spor.ema.europa.eu/v1/lists/220000000060"/>
            <code value="220000000061"/>
            <display value="Marketing Authorisation"/>
          </coding>
        </type>
        <region>
          <coding>
            <system value="https://spor.ema.europa.eu/v1/lists/100000000002"/>
            <code value="100000000538"/>
            <display value="Taiwan"/>
          </coding>
        </region>
        <status>
          <coding>
            <system value="https://spor.ema.europa.eu/v1/lists/100000072049"/>
            <code value="100000072099"/>
            <display value="Valid"/>
          </coding>
        </status>
        <statusDate value="113-10-08"/>
        <holder>
          <reference value="urn:uuid:8034cbe0-622b-4fe3-bbdf-0ed521bb06d0"/>
        </holder>
      </RegulatedAuthorization>
    </resource>
  </entry>

  <entry>
    <fullUrl value="urn:uuid:1ea89061-dc21-4e27-a888-30ac92d36d54"/>
    <resource>
      <MedicinalProductDefinition>
        <id value="1ea89061-dc21-4e27-a888-30ac92d36d54"/>
        <meta>
          <profile value="http://hl7.org/fhir/uv/emedicinal-product-info/StructureDefinition/MedicinalProductDefinition-uv-epi"/>
        </meta>
        <identifier>
          <system value="https://mcp.fda.gov.tw/"/>
          <value value="b9dd4206-a785-48c5-a377-4f662288830e"/>
        </identifier>
        <type>
          <coding>
            <system value="http://hl7.org/fhir/medicinal-product-type"/>
            <code value="MedicinalProduct"/>
            <display value="Medicinal Product"/>
          </coding>
        </type>
        <domain>
          <coding>
            <system value="http://hl7.org/fhir/medicinal-product-domain"/>
            <code value="Human"/>
            <display value="Human use"/>
          </coding>
        </domain>
        <status>
          <coding>
            <system value="http://hl7.org/fhir/publication-status"/>
            <code value="active"/>
            <display value="Active"/>
          </coding>
        </status>
        <statusDate value="2024-10-17T00:00:00"/>
        <legalStatusOfSupply>
          <coding>
            <system value="http://hl7.org/fhir/legal-status-of-supply"/>
            <code value="100000072084"/>
            <display value="Medicinal product subject to medical prescription"/>
          </coding>
        </legalStatusOfSupply>
        <classification>
					<coding>
						<system value="http://hl7.org/fhir/ValueSet/medicinal-product-classification"/>
						<code value="J07BX05"/>
						<display value="respiratory syncytial virus vaccines"/>
					</coding>
				</classification>
        <route>
					<coding>
						<system value="http://hl7.org/fhir/uv/emedicinal-product-info/ValueSet/routeOfAdministration"/>
						<code value="78421000"/>
						<display value="Intramuscular route"/>
					</coding>
				</route>
        <name>
          <productName value=" ABRYSVO, Respiratory Syncytial Virus Vaccine, powder and solvent for solution for injection"/>
          <usage>
            <country>
              <coding>
                <system value="http://hl7.org/fhir/ValueSet/country"/>
                <code value="TW"/>
                <display value="Taiwan"/>
              </coding>
            </country>
            <jurisdiction>
              <coding>
                <system value="http://hl7.org/fhir/ValueSet/jurisdiction"/>
                <code value="TW"/>
                <display value="Taiwan"/>
              </coding>
            </jurisdiction>
            <language>
              <coding>
                <system value="http://hl7.org/fhir/ValueSet/all-languages"/>
                <code value="zh"/>
                <display value="Mandarin"/>
              </coding>
            </language>
          </usage>
        </name>
      </MedicinalProductDefinition>
    </resource>
  </entry>

  <entry>
    <fullUrl value="urn:uuid:aeb86110-1123-4c97-86c3-c9d59abc3d53"/>
    <resource>
      <PackagedProductDefinition>
        <id value="aeb86110-1123-4c97-86c3-c9d59abc3d53"/>
        <meta>
          <profile value="http://hl7.org/fhir/uv/emedicinal-product-info/StructureDefinition/PackagedProductDefinition-uv-epi"/>
        </meta>
        <identifier>
          <use value="official"/>
          <system value="https://mcp.fda.gov.tw/"/>
          <value value="548e1db3-faf1-40f5-a07b-25d03b62ac31"/>
        </identifier>
        <name value="ABRYSVO power and solvent for solution for injection"/>
        <type>
          <coding>
            <system value="http://hl7.org/fhir/medicinal-product-type"/>
            <code value="MedicinalProduct"/>
            <display value="Medicinal Product"/>
          </coding>
        </type>
        <packageFor>
          <reference value="urn:uuid:1ea89061-dc21-4e27-a888-30ac92d36d54"/>
        </packageFor>
        <status>
          <coding>
            <system value="http://hl7.org/fhir/publication-status"/>
            <code value="active"/>
            <display value="Active"/>
          </coding>
        </status>
        <statusDate value="2024-10-17T00:00:00Z"/>
        <containedItemQuantity>
          <value value="1" />
          <system value="http://unitsofmeasure.org"/>
          <code value="dose" />
        </containedItemQuantity>
        <manufacturer>
          <reference value="urn:uuid:82eaaeab-bb28-4082-993c-d55e52ce9284"/>
          <reference value="urn:uuid:dfdcd278-7df6-4100-af64-0e622f532a7c"/>
        </manufacturer>
        <marketingStatus>
          <country>
            <coding>
              <system value="https://spor.ema.europa.eu/v1/lists/100000000002"/>
              <code value="100000000538"/>
              <display value="Taiwan"/>
            </coding>
          </country>
          <status>
            <coding>
              <system
                      value="https://spor.ema.europa.eu/v1/lists/100000072052"/>
              <code value="100000072083"/>
              <display value="Marketed"/>
            </coding>
          </status>
          <dateRange>
            <start value="113-10-08"/>
          </dateRange>
        </marketingStatus>
        <packaging>
          <identifier>
            <system value="https://mcp.fda.gov.tw/"/>
            <value value="9d3d869d-f96d-473b-964b-cc87384ef716"/>
          </identifier>
          <type>
            <coding>
              <system value="http://hl7.org/fhir/medicinal-product-package-type"/>
              <code value="100000073498"/>
              <display value="Box"/>
            </coding>
          </type>
          <quantity value="1"/>
          <material>
            <coding>
              <system value="http://hl7.org/fhir/package-material"/>
              <code value="200000003529"/>
              <display value="Cardboard"/>
            </coding>
           </material>
           <packaging>
          <identifier>
            <system value="https://mcp.fda.gov.tw/"/>
            <value value="965ab24e-6995-4dd7-ac07-d50d6dae4415"/>
          </identifier>
          <type>
            <coding>
              <system value="http://hl7.org/fhir/medicinal-product-package-type"/>
              <code value="100000073563"/>
              <display value="Vial"/>
            </coding>
          </type>
          <quantity value="1"/>
          <material>
            <coding>
              <system value="http://hl7.org/fhir/package-material"/>
              <code value="200000003204"/>
              <display value="Glass type I"/>
            </coding>
           </material>
            <containedItem>
              <item>
                <reference>
                  <reference value="urn:uuid:3432fae4-3240-420b-a922-0c2a965ed032"/>
                </reference>
              </item>
              <amount>
                <value value="1"/>
                <unit value="Vial"/>
                <system value="http://hl7.org/fhir/medicinal-product-package-type"/>
                <code value="100000073563"/>
              </amount>
            </containedItem>
        </packaging>
        <packaging>
          <identifier>
            <system value="https://mcp.fda.gov.tw/"/>
            <value value="30efcd5f-58bf-46da-9fbc-b355b8a4e67e"/>
          </identifier>
          <type>
            <coding>
              <system value="http://hl7.org/fhir/medicinal-product-package-type"/>
              <code value="100000073544"/>
              <display value="Pre-filled syringe"/>
            </coding>
          </type>
          <quantity value="1"/>
          <material>
            <coding>
              <system value="http://hl7.org/fhir/package-material"/>
              <code value="200000003204"/>
              <display value="Glass type I"/>
            </coding>
           </material>
            <containedItem>
              <item>
                <reference>
                  <reference value="urn:uuid:c984b49f-f53d-468f-af0f-6f12ecc678e9"/>
                </reference>
              </item>
              <amount>
                <value value="1"/>
                <unit value="Pre-filled syringe"/>
                <system value="http://hl7.org/fhir/medicinal-product-package-type"/>
                <code value="100000073544"/>
              </amount>
            </containedItem>
        </packaging>
        <packaging>
          <identifier>
            <system value="https://mcp.fda.gov.tw/"/>
            <value value="321e100f-a928-40cd-8441-25487afc52b2"/>
          </identifier>
          <type>
            <coding>
              <system value="http://hl7.org/fhir/medicinal-product-package-type"/>
              <code value="100000073544"/>
              <display value="Vial Adapter"/>
            </coding>
          </type>
          <quantity value="1"/>
          <material>
            <coding>
              <system value="http://hl7.org/fhir/package-material"/>
              <code value="200000003208"/>
              <display value="Plastic"/>
            </coding>
           </material>
           <containedItem>
                <amount>
                <value value="1"/>
                <unit value="Vial Adapter"/>
                <system value="http://hl7.org/fhir/medicinal-product-package-type"/>
                <code value="100000073544"/>
              </amount>
            </containedItem>
        </packaging>
        </packaging>  
      </PackagedProductDefinition>
    </resource>
  </entry>
  

  <entry>
    <fullUrl value="urn:uuid:7449fcf4-ed9e-4752-859d-4dd14a89f1f5"/>
    <resource>
      <PackagedProductDefinition>
        <id value="7449fcf4-ed9e-4752-859d-4dd14a89f1f5"/>
        <meta>
          <profile value="http://hl7.org/fhir/uv/emedicinal-product-info/StructureDefinition/PackagedProductDefinition-uv-epi"/>
        </meta>
        <identifier>
          <use value="official"/>
          <system value="https://mcp.fda.gov.tw/"/>
          <value value="a2b8d999-da6e-4038-952b-d45e57aec99d"/>
        </identifier>
        <name value="ABRYSVO power and solvent for solution for injection"/>
        <type>
          <coding>
            <system value="http://hl7.org/fhir/medicinal-product-type"/>
            <code value="MedicinalProduct"/>
            <display value="Medicinal Product"/>
          </coding>
        </type>
        <packageFor>
          <reference value="urn:uuid:1ea89061-dc21-4e27-a888-30ac92d36d54"/>
        </packageFor>
        <status>
          <coding>
            <system value="http://hl7.org/fhir/publication-status"/>
            <code value="active"/>
            <display value="Active"/>
          </coding>
        </status>
        <statusDate value="2024-10-17T00:00:00Z"/>
        <containedItemQuantity>
          <value value="5" />
          <system value="http://unitsofmeasure.org"/>
          <code value="doses" />
        </containedItemQuantity>
        <manufacturer>
          <reference value="urn:uuid:82eaaeab-bb28-4082-993c-d55e52ce9284"/>
          <reference value="urn:uuid:dfdcd278-7df6-4100-af64-0e622f532a7c"/>
        </manufacturer>
        <marketingStatus>
          <country>
            <coding>
              <system value="https://spor.ema.europa.eu/v1/lists/100000000002"/>
              <code value="100000000538"/>
              <display value="Taiwan"/>
            </coding>
          </country>
          <status>
            <coding>
              <system
                      value="https://spor.ema.europa.eu/v1/lists/100000072052"/>
              <code value="100000072083"/>
              <display value="Marketed"/>
            </coding>
          </status>
          <dateRange>
            <start value="113-10-08"/>
          </dateRange>
        </marketingStatus>
        <packaging>
          <identifier>
            <system value="https://mcp.fda.gov.tw/"/>
            <value value="4f1f5f67-b63e-4672-a9ed-2d56bc7d9fc9"/>
          </identifier>
          <type>
            <coding>
              <system value="http://hl7.org/fhir/medicinal-product-package-type"/>
              <code value="100000143555"/>
              <display value="Box"/>
            </coding>
          </type>
          <quantity value="1"/>
          <material>
            <coding>
              <system value="http://hl7.org/fhir/package-material"/>
              <code value="200000003529"/>
              <display value="Cardboard"/>
            </coding>
           </material>
           <packaging>
          <identifier>
            <system value="https://mcp.fda.gov.tw/"/>
            <value value="f6ab2070-1169-4f44-98aa-f24bc2561259"/>
          </identifier>
          <type>
            <coding>
              <system value="http://hl7.org/fhir/medicinal-product-package-type"/>
              <code value="100000073563"/>
              <display value="Vial"/>
            </coding>
          </type>
          <quantity value="5"/>
          <material>
            <coding>
              <system value="http://hl7.org/fhir/package-material"/>
              <code value="200000003204"/>
              <display value="Glass type I"/>
            </coding>
           </material>
           <containedItem>
              <item>
                <reference>
                  <reference value="urn:uuid:3432fae4-3240-420b-a922-0c2a965ed032"/>
                </reference>
              </item>
              <amount>
                <value value="5"/>
                <unit value="Vial"/>
                <system value="http://hl7.org/fhir/medicinal-product-package-type"/>
                <code value="100000073563"/>
              </amount>
            </containedItem>
        </packaging>
        <packaging>
          <identifier>
            <system value="https://mcp.fda.gov.tw/"/>
            <value value="a82b53b6-1f15-4937-b2c0-8f14395bd5b0"/>
          </identifier>
          <type>
            <coding>
              <system value="http://hl7.org/fhir/medicinal-product-package-type"/>
              <code value="100000073544"/>
              <display value="Pre-filled syringe"/>
            </coding>
          </type>
          <quantity value="5"/>
          <material>
            <coding>
              <system value="http://hl7.org/fhir/package-material"/>
              <code value="200000003204"/>
              <display value="Glass type I"/>
            </coding>
           </material>
           <containedItem>
              <item>
                <reference>
                  <reference value="urn:uuid:c984b49f-f53d-468f-af0f-6f12ecc678e9"/>
                </reference>
              </item>
              <amount>
                <value value="5"/>
                <unit value="Pre-filled syringe"/>
                <system value="http://hl7.org/fhir/medicinal-product-package-type"/>
                <code value="100000073544"/>
              </amount>
            </containedItem>
        </packaging>
        <packaging>
          <identifier>
            <system value="https://mcp.fda.gov.tw/"/>
            <value value="f08158f5-96c2-4ba0-a078-994c4b91437c"/>
          </identifier>
          <type>
            <coding>
              <system value="http://hl7.org/fhir/medicinal-product-package-type"/>
              <code value="100000073544"/>
              <display value="Vial Adapter"/>
            </coding>
          </type>
          <quantity value="5"/>
          <material>
            <coding>
              <system value="http://hl7.org/fhir/package-material"/>
              <code value="200000003208"/>
              <display value="Plastic"/>
            </coding>
           </material>
           <containedItem>
                <amount>
                <value value="5"/>
                <unit value="Vial Adapter"/>
                <system value="http://hl7.org/fhir/medicinal-product-package-type"/>
                <code value="100000073544"/>
              </amount>
            </containedItem>
        </packaging>
        </packaging>
      </PackagedProductDefinition>
    </resource>
  </entry>

  <entry>
    <fullUrl value="urn:uuid:4a415c12-f188-4cab-b9a0-774e435951a3"/>
    <resource>
      <AdministrableProductDefinition>
        <id value="4a415c12-f188-4cab-b9a0-774e435951a3"/>
        <meta>
          <profile value="http://hl7.org/fhir/uv/emedicinal-product-info/StructureDefinition/AdministrableProductDefinition-uv-epi"/>
        </meta>
        <identifier>
          <system value="https://mcp.fda.gov.tw/"/>
          <value value="c3424968-2374-4fb9-aa4e-0f18a27d36d0"/>
        </identifier>
        <status value="active"/>
        <formOf>
          <reference value="urn:uuid:1ea89061-dc21-4e27-a888-30ac92d36d54"/>
        </formOf>
        <administrableDoseForm>
          <coding>
            <system value="https://spor.ema.europa.eu/rmswi/"/>
            <code value="200000016496"/>
            <display value="Solution for injection in pre-filled syringe"/>
          </coding>
        </administrableDoseForm>
        <unitOfPresentation>
          <coding>
            <system value="https://spor.ema.europa.eu/rmswi/"/>
            <code value="200000002150"/>
            <display value="Syringe"/>
          </coding>
        </unitOfPresentation>
        <producedFrom>
          <reference value="urn:uuid:3432fae4-3240-420b-a922-0c2a965ed032"/>
        </producedFrom>
        <producedFrom>
          <reference value="urn:uuid:c984b49f-f53d-468f-af0f-6f12ecc678e9"/>
        </producedFrom>
        <routeOfAdministration>
          <code>
            <coding>
              <system value="https://spor.ema.europa.eu/rmswi/"/>
              <code value="100000073600"/>
              <display value="Intramuscular use"/>
            </coding>
          </code>
        </routeOfAdministration>
      </AdministrableProductDefinition>
    </resource>
  </entry>
  
  <entry>
    <fullUrl value="urn:uuid:3432fae4-3240-420b-a922-0c2a965ed032"/>
    <resource>
      <ManufacturedItemDefinition>
        <id value="3432fae4-3240-420b-a922-0c2a965ed032"/>
        <meta>
          <profile value="http://hl7.org/fhir/uv/emedicinal-product-info/StructureDefinition/ManufacturedItemDefinition-uv-epi"/>
        </meta>
        <identifier>
          <use value="official"/>
          <system value="https://mcp.fda.gov.tw/"/>
          <value value="8d122cf1-5fd1-44e2-8df5-af0cdcc04131"/>
        </identifier>
        <name value="RSV subgroupA,RSV subgroupB 0.06mg,0.06mg Powder"/>
        <status value="active"/>
        <manufacturedDoseForm>
          <coding>
            <system value="https://spor.ema.europa.eu/rmswi"/>
            <code value="100000073866"/>
            <display value="Powder for solution for injection"/>
          </coding>
        </manufacturedDoseForm>
        <unitOfPresentation>
          <coding>
            <system value="http://hl7.org/fhir/unit-of-presentation"/>
            <code value="200000002158"/>
            <display value="Vial"/>
          </coding>
        </unitOfPresentation>
        <manufacturer>
          <reference value="urn:uuid:82eaaeab-bb28-4082-993c-d55e52ce9284"/>
        </manufacturer> 
        <manufacturer>
          <reference value="urn:uuid:dfdcd278-7df6-4100-af64-0e622f532a7c"/>
        </manufacturer>
      </ManufacturedItemDefinition>
    </resource>
  </entry>
  <entry>
    <fullUrl value="urn:uuid:c984b49f-f53d-468f-af0f-6f12ecc678e9"/>
    <resource>
      <ManufacturedItemDefinition>
        <id value="c984b49f-f53d-468f-af0f-6f12ecc678e9"/>
        <meta>
          <profile value="http://hl7.org/fhir/uv/emedicinal-product-info/StructureDefinition/ManufacturedItemDefinition-uv-epi"/>
        </meta>
        <identifier>
          <use value="official"/>
          <system value="https://mcp.fda.gov.tw/"/>
          <value value="3d0bf666-02af-4724-887c-8c5462ae2dda"/>
        </identifier>
        <name value="Water for injections"/>
        <status value="active"/>
        <manufacturedDoseForm>
          <coding>
            <system value="https://spor.ema.europa.eu/rmswi"/>
            <code value="200000010709"/>
            <display value="Solvent for solution for injection"/>
          </coding>
        </manufacturedDoseForm>
        <unitOfPresentation>
          <coding>
            <system value="http://hl7.org/fhir/unit-of-presentation"/>
            <code value="200000002150"/>
            <display value="Syringe"/>
          </coding>
        </unitOfPresentation>
        <manufacturer>
          <reference value="urn:uuid:82eaaeab-bb28-4082-993c-d55e52ce9284"/>
        </manufacturer>
        <manufacturer>
          <reference value="urn:uuid:dfdcd278-7df6-4100-af64-0e622f532a7c"/>
        </manufacturer>
      </ManufacturedItemDefinition>
    </resource>
  </entry>

  <entry>
    <fullUrl value="urn:uuid:95280b77-c88f-488e-b04d-50bc8957d565"/>
    <resource>
      <Ingredient>
        <id value="95280b77-c88f-488e-b04d-50bc8957d565"/>
        <meta>
          <profile value="http://hl7.org/fhir/uv/emedicinal-product-info/StructureDefinition/Ingredient-uv-epi"/>
        </meta>
        <identifier>
          <use value="official"/>
          <system value="https://mcp.fda.gov.tw/"/>
          <value value="68551c77-ca18-4ce9-9bd8-535187cdc2ba"/>
        </identifier>
        <status value="active"/>
        <for>
          <reference value="urn:uuid:3432fae4-3240-420b-a922-0c2a965ed032"/>
        </for>
        <role>
          <coding>
            <system value="http://hl7.org/fhir/ingredient-role"/>
            <code value="100000072072"/>
            <display value="Active"/>
          </coding>
        </role>
        <manufacturer>
        </manufacturer>
        <substance>
          <code>
            <concept>
              <coding>
                <system value="https://gsrs.ncats.nih.gov/ginas/app/beta/"/>
                <code value="5LLJ3ZKP16"/>
                <display value="RESPIRATORY SYNCYTIAL VIRUS SUBGROUP A"/>
              </coding>
            </concept>
          </code>
          <strength>
            <presentationRatio>
              <numerator>
                <value value="60"/>
                <unit value="microgram(s)"/>
                <system
                        value="https://spor.ema.europa.eu/v1/lists/100000110633"/>
                <code value="100000110656"/>
              </numerator>
              <denominator>
                <value value="1"/>
                <unit value="Vial"/>
                <system
                        value="https://spor.ema.europa.eu/v1/lists/200000000014"/>
                <code value="200000002158"/>
              </denominator>
            </presentationRatio>
            <basis>
              <coding>
                <system value="http://terminology.hl7.org/CodeSystem/v3-RoleClass"/>
                <code value="ACTI"/>
              </coding>
              <text value="active ingredient"/>
            </basis>
          </strength>
        </substance>
      </Ingredient>
    </resource>
  </entry>

  <entry>
    <fullUrl value="urn:uuid:ca0f70fd-7271-4c59-9998-498384d43d9a"/>
    <resource>
      <Ingredient>
        <id value="ca0f70fd-7271-4c59-9998-498384d43d9a"/>
        <meta>
          <profile value="http://hl7.org/fhir/uv/emedicinal-product-info/StructureDefinition/Ingredient-uv-epi"/>
        </meta>
        <identifier>
          <use value="official"/>
          <system value="https://mcp.fda.gov.tw/"/>
          <value value="21f01efb-bfb9-4787-b35b-3199cebb5e3e"/>
        </identifier>
        <status value="active"/>
        <for>
          <reference value="urn:uuid:3432fae4-3240-420b-a922-0c2a965ed032"/>
        </for>
        <role>
          <coding>
            <system value="http://hl7.org/fhir/ingredient-role"/>
            <code value="100000072072"/>
            <display value="Active"/>
          </coding>
        </role>
        <substance>
          <code>
            <concept>
              <coding>
                <system value="https://gsrs.ncats.nih.gov/ginas/app/beta/"/>
                <code value="96U226U1LZ"/>
                <display value="RESPIRATORY SYNCYTIAL VIRUS SUBGROUP B"/>
              </coding>
            </concept>
          </code>
          <strength>
              <presentationRatio>
              <numerator>
                <value value="60"/>
                <unit value="microgram(s)"/>
                <system
                        value="https://spor.ema.europa.eu/v1/lists/100000110633"/>
                <code value="100000110656"/>
              </numerator>
              <denominator>
                <value value="1"/>
                <unit value="Vial"/>
                <system
                        value="https://spor.ema.europa.eu/v1/lists/200000000014"/>
                <code value="200000002158"/>
              </denominator>
            </presentationRatio>
            <basis>
              <coding>
                <system value="http://terminology.hl7.org/CodeSystem/v3-RoleClass"/>
                <code value="ACTI"/>
              </coding>
              <text value="active ingredient"/>
            </basis>
          </strength>
        </substance>
      </Ingredient>
    </resource>
  </entry>

  <entry>
    <fullUrl value="urn:uuid:fba6a779-7288-4eb5-881f-d90fdf1f2f57"/>
    <resource>
      <Ingredient>
        <id value="fba6a779-7288-4eb5-881f-d90fdf1f2f57"/>
        <meta>
          <profile value="http://hl7.org/fhir/uv/emedicinal-product-info/StructureDefinition/Ingredient-uv-epi"/>
        </meta>
        <identifier>
          <use value="official"/>
          <system value="https://mcp.fda.gov.tw/"/>
          <value value="c34cc243-5af4-4cc8-be3e-66fd2f414fd9"/>
        </identifier>
        <status value="active"/>
        <for>
        <reference value="urn:uuid:3432fae4-3240-420b-a922-0c2a965ed032"/>
        </for>
        <role>
          <coding>
            <system value="http://hl7.org/fhir/ingredient-role"/>
            <code value="100000072082"/>
            <display value="Excipient"/>
          </coding>
        </role>
        <manufacturer>
        </manufacturer>
        <substance>
          <code>
            <concept>
              <coding>
                <system value="https://gsrs.ncats.nih.gov/ginas/app/beta/"/>
                <code value="023C2WHX2V"/>
                <display value="Trometamol"/>
              </coding>
            </concept>
          </code>
        </substance>
      </Ingredient>
    </resource>
  </entry>

  <entry>
    <fullUrl value="urn:uuid:37b28773-3749-495a-9bf5-50255a45610a"/>
    <resource>
      <Ingredient>
        <id value="37b28773-3749-495a-9bf5-50255a45610a"/>
        <meta>
          <profile value="http://hl7.org/fhir/uv/emedicinal-product-info/StructureDefinition/Ingredient-uv-epi"/>
        </meta>
        <identifier>
          <use value="official"/>
          <system value="https://mcp.fda.gov.tw/"/>
          <value value="f3500b7a-bd01-4180-b89d-dc13444240a6"/>
        </identifier>
        <status value="active"/>
        <for>
          <reference value="urn:uuid:3432fae4-3240-420b-a922-0c2a965ed032"/>
        </for>
        <role>
          <coding>
            <system value="http://hl7.org/fhir/ingredient-role"/>
            <code value="100000072082"/>
            <display value="Excipient"/>
          </coding>
        </role>
        <manufacturer>
        </manufacturer>
        <substance>
          <code>
            <concept>
              <coding>
                <system value="https://gsrs.ncats.nih.gov/ginas/app/beta/"/>
                <code value="383V75M34E"/>
                <display value="Trometamol hydrochloride"/>
              </coding>
            </concept>
          </code>
        </substance>
      </Ingredient>
    </resource>
  </entry>

  <entry>
    <fullUrl value="urn:uuid:f995e8a4-6e3f-4e44-b37c-4bcace3f362f"/>
    <resource>
      <Ingredient>
        <id value="f995e8a4-6e3f-4e44-b37c-4bcace3f362f"/>
        <meta>
          <profile value="http://hl7.org/fhir/uv/emedicinal-product-info/StructureDefinition/Ingredient-uv-epi"/>
        </meta>
        <identifier>
          <use value="official"/>
          <system value="https://mcp.fda.gov.tw/"/>
          <value value="5e0afabb-a083-415c-a71d-c94126e424a9"/>
        </identifier>
        <status value="active"/>
        <for>
          <reference value="urn:uuid:3432fae4-3240-420b-a922-0c2a965ed032"/>
        </for>
        <role>
          <coding>
            <system value="http://hl7.org/fhir/ingredient-role"/>
            <code value="100000072082"/>
            <display value="Excipient"/>
          </coding>
        </role>
        <manufacturer>
        </manufacturer>
        <substance>
          <code>
            <concept>
              <coding>
                <system value="https://gsrs.ncats.nih.gov/ginas/app/beta/"/>
                <code value="C151H8M554"/>
                <display value="Sucrose"/>
              </coding>
            </concept>
          </code>
        </substance>
      </Ingredient>
    </resource>
  </entry>

  <entry>
    <fullUrl value="urn:uuid:9f24de9b-61ac-453e-97e0-c16553c8a859"/>
    <resource>
      <Ingredient>
        <id value="9f24de9b-61ac-453e-97e0-c16553c8a859"/>
        <meta>
          <profile value="http://hl7.org/fhir/uv/emedicinal-product-info/StructureDefinition/Ingredient-uv-epi"/>
        </meta>
        <identifier>
          <use value="official"/>
          <system value="https://mcp.fda.gov.tw/"/>
          <value value="0050299d-6a1b-41ed-9aeb-e69f163834ef"/>
        </identifier>
        <status value="active"/>
        <for>
          <reference value="urn:uuid:3432fae4-3240-420b-a922-0c2a965ed032"/>
        </for>
        <role>
          <coding>
            <system value="http://hl7.org/fhir/ingredient-role"/>
            <code value="100000072082"/>
            <display value="Excipient"/>
          </coding>
        </role>
        <manufacturer>
        </manufacturer>
        <substance>
          <code>
            <concept>
              <coding>
                <system value="https://gsrs.ncats.nih.gov/ginas/app/beta/"/>
                <code value="3OWL53L36A"/>
                <display value="Mannitol"/>
              </coding>
            </concept>
          </code>
        </substance>
      </Ingredient>
    </resource>
  </entry>

  <entry>
    <fullUrl value="urn:uuid:ae05ec15-d5f9-400f-bd3d-9b089baf2ede"/>
    <resource>
      <Ingredient>
        <id value="ae05ec15-d5f9-400f-bd3d-9b089baf2ede"/>
        <meta>
          <profile value="http://hl7.org/fhir/uv/emedicinal-product-info/StructureDefinition/Ingredient-uv-epi"/>
        </meta>
        <identifier>
          <use value="official"/>
          <system value="https://mcp.fda.gov.tw/"/>
          <value value="3d6e9c7e-8a06-43f3-a9c3-62c87cda6d45"/>
        </identifier>
        <status value="active"/>
        <for>
          <reference value="urn:uuid:3432fae4-3240-420b-a922-0c2a965ed032"/>
        </for>
        <role>
          <coding>
            <system value="http://hl7.org/fhir/ingredient-role"/>
            <code value="100000072082"/>
            <display value="Excipient"/>
          </coding>
        </role>
        <manufacturer>
        </manufacturer>
        <substance>
          <code>
            <concept>
              <coding>
                <system value="https://gsrs.ncats.nih.gov/ginas/app/beta/"/>
                <code value="6OZP39ZG8H"/>
                <display value="Polysorbate 80"/>
              </coding>
            </concept>
          </code>
        </substance>
      </Ingredient>
    </resource>
  </entry>

  <entry>
    <fullUrl value="urn:uuid:5480dd58-f4ff-4831-9070-29ee5761f54a"/>
    <resource>
      <Ingredient>
        <id value="5480dd58-f4ff-4831-9070-29ee5761f54a"/>
        <meta>
          <profile value="http://hl7.org/fhir/uv/emedicinal-product-info/StructureDefinition/Ingredient-uv-epi"/>
        </meta>
        <identifier>
          <use value="official"/>
          <system value="https://mcp.fda.gov.tw/"/>
          <value value="24ef2c8e-9d0f-46e1-8a0a-4ed9d97c2bc1"/>
        </identifier>
        <status value="active"/>
        <for>
          <reference value="urn:uuid:3432fae4-3240-420b-a922-0c2a965ed03"/>
        </for>
        <role>
          <coding>
            <system value="http://hl7.org/fhir/ingredient-role"/>
            <code value="100000072082"/>
            <display value="Excipient"/>
          </coding>
        </role>
        <manufacturer>
        </manufacturer>
        <substance>
          <code>
            <concept>
              <coding>
                <system value="https://gsrs.ncats.nih.gov/ginas/app/beta/"/>
                <code value="6OZP39ZG8H"/>
                <display value="Polysorbate 80"/>
              </coding>
            </concept>
          </code>
        </substance>
      </Ingredient>
    </resource>
  </entry>

  <entry>
    <fullUrl value="urn:uuid:a320e9f3-1c69-4827-9e09-959eb060f799"/>
    <resource>
      <Ingredient>
        <id value="a320e9f3-1c69-4827-9e09-959eb060f799"/>
        <meta>
          <profile value="http://hl7.org/fhir/uv/emedicinal-product-info/StructureDefinition/Ingredient-uv-epi"/>
        </meta>
        <identifier>
          <use value="official"/>
          <system value="https://mcp.fda.gov.tw/"/>
          <value value="62a8194b-6674-41e2-a453-42007cee6084"/>
        </identifier>
        <status value="active"/>
        <for>
          <reference value="urn:uuid:3432fae4-3240-420b-a922-0c2a965ed032"/>
        </for>
        <role>
          <coding>
            <system value="http://hl7.org/fhir/ingredient-role"/>
            <code value="100000072082"/>
            <display value="Excipient"/>
          </coding>
        </role>
        <manufacturer>
        </manufacturer>
        <substance>
          <code>
            <concept>
              <coding>
                <system value="https://gsrs.ncats.nih.gov/ginas/app/beta/"/>
                <code value="451W47IQ8X"/>
                <display value="Sodium Chloride"/>
              </coding>
            </concept>
          </code>
        </substance>
      </Ingredient>
    </resource>
  </entry>

  <entry>
    <fullUrl value="urn:uuid:d05504af-7f08-459e-8b40-7ad3344d5140"/>
    <resource>
      <Ingredient>
        <id value="d05504af-7f08-459e-8b40-7ad3344d5140"/>
        <meta>
          <profile value="http://hl7.org/fhir/uv/emedicinal-product-info/StructureDefinition/Ingredient-uv-epi"/>
        </meta>
        <identifier>
          <use value="official"/>
          <system value="https://mcp.fda.gov.tw/"/>
          <value value="25ae6439-f1a2-4b68-bdd0-2098b885fa30"/>
        </identifier>
        <status value="active"/>
        <for>
          <reference value="urn:uuid:3432fae4-3240-420b-a922-0c2a965ed032"/>
        </for>
        <role>
          <coding>
            <system value="http://hl7.org/fhir/ingredient-role"/>
            <code value="100000072082"/>
            <display value="Excipient"/>
          </coding>
        </role>
        <manufacturer>
        </manufacturer>
        <substance>
          <code>
            <concept>
              <coding>
                <system value="https://gsrs.ncats.nih.gov/ginas/app/beta/"/>
                <code value="QTT17582CB"/>
                <display value="Hydrochloric acid"/>
              </coding>
            </concept>
          </code>
        </substance>
      </Ingredient>
    </resource>
  </entry>

  <entry>
    <fullUrl value="urn:uuid:9d9a4607-9728-40f5-9f0f-3f190416a527"/>
    <resource>
      <Ingredient>
        <id value="9d9a4607-9728-40f5-9f0f-3f190416a527"/>
        <meta>
          <profile value="http://hl7.org/fhir/uv/emedicinal-product-info/StructureDefinition/Ingredient-uv-epi"/>
        </meta>
        <identifier>
          <use value="official"/>
          <system value="https://gsrs.ncats.nih.gov/ginas/app/beta/"/>
          <value value="3WJQ0SDW1A"/>
        </identifier>
        <status value="active"/>
        <for>
          <reference value="urn:uuid:c984b49f-f53d-468f-af0f-6f12ecc678e9"/>
        </for>
        <role>
          <coding>
            <system value="http://hl7.org/fhir/ingredient-role"/>
            <code value="100000136066"/>
            <display value="Solvent"/>
          </coding>
        </role>
        <manufacturer>
        </manufacturer>
        <substance>
          <code>
            <concept>
              <coding>
                <system value="https://gsrs.ncats.nih.gov/ginas/app/beta/"/>
                <code value="059QF0KO0R"/>
                <display value="Water for injection"/>
              </coding>
            </concept>
          </code>
        </substance>
      </Ingredient>
    </resource>
  </entry>
  
  <entry>
    <fullUrl value="urn:uuid:157a85b3-bd7f-4274-9365-9b1ad5309f74"/>
    <resource>
      <SubstanceDefinition>
        <id value="157a85b3-bd7f-4274-9365-9b1ad5309f74"/>
        <meta>
          <profile value="http://hl7.org/fhir/uv/emedicinal-product-info/StructureDefinition/SubstanceDefinition-uv-epi"/>
        </meta>
        <identifier>
          <use value="official"/>
          <system value="https://gsrs.ncats.nih.gov/ginas/app/beta"/>
          <value value="5LLJ3ZKP16"/>
        </identifier>
        <version value="1"/>
        <status>
          <coding>
            <system value="http://hl7.org/fhir/publication-status"/>
            <code value="active"/>
          </coding>
        </status>
        <name>
          <name value="HUMAN RESPIRATORY SYNCYTIAL VIRUS SUBGROUP A"/>
          <type>
            <coding>
              <system value="http://hl7.org/fhir/substance-name-type"/>
              <code value="Scientific"/>
            </coding>
            <text value="Scientific"/>
          </type>
        </name>
      </SubstanceDefinition>
    </resource>
  </entry>
  <entry>
    <fullUrl value="urn:uuid:dbc898b3-4890-485f-aff4-f29b78c503aa"/>
    <resource>
      <SubstanceDefinition>
        <id value="dbc898b3-4890-485f-aff4-f29b78c503aa"/>
        <meta>
          <profile value="http://hl7.org/fhir/uv/emedicinal-product-info/StructureDefinition/SubstanceDefinition-uv-epi"/>
        </meta>
        <identifier>
          <use value="official"/>
          <system value="https://gsrs.ncats.nih.gov/ginas/app/beta"/>
          <value value="96U226U1LZ"/>
        </identifier>
        <version value="1"/>
        <status>
          <coding>
            <system value="http://hl7.org/fhir/publication-status"/>
            <code value="active"/>
          </coding>
        </status>
        <name>
          <name value="HUMAN RESPIRATORY SYNCYTIAL VIRUS SUBGROUP B"/>
          <type>
            <coding>
              <system value="http://hl7.org/fhir/substance-name-type"/>
              <code value="Scientific"/>
            </coding>
            <text value="Scientific"/>
          </type>
        </name>
      </SubstanceDefinition>
    </resource>
  </entry>
</Bundle>
