<?xml version="1.0" encoding="UTF-8"?>
<Bundle xmlns="http://hl7.org/fhir">
  <id value="bundle-abrysvo"/>
  <meta>
    <versionId value="1"/>
    <lastUpdated value="2024-10-17T00:00:00"/>
    <profile value="http://hl7.org/fhir/uv/emedicinal-product-info/StructureDefinition/Bundle-uv-epi"/>
  </meta>
  <language value="en"/>
  <identifier>
    <system value="https://mcp.fda.gov.tw/"/>
    <value value="eda6398d-8f84-42f0-8339-b1cb5a584d59"/>
  </identifier>
  <type value="document"/>
  <timestamp value="2024-10-17T00:00:00"/>

  <entry>
    <fullUrl value="urn:uuid:7a1a7106-403a-43df-9f2b-16050988a7d2"/>
    <resource>
      <Composition>
        <id value="7a1a7106-403a-43df-9f2b-16050988a7d2"/>
        <meta>
          <profile value="http://hl7.org/fhir/uv/emedicinal-product-info/StructureDefinition/Composition-uv-epi"/>
        </meta>
        <language value="en"/>
        <version value="1"/>
        <identifier>
          <system value="https://mcp.fda.gov.tw/" />
          <value value="a505bdff-01e4-4466-9cbc-8a7f6748ed4b" />
        </identifier>
        <status value="final"/>

        <contained>
          <Binary>
          <id value="image1"/>
          <contentType value="image/png"/>
          <data value=""/>
          </Binary>
        </contained>
        <contained>
          <Binary>
          <id value="image2"/>
          <contentType value="image/png"/>
          <data value=""/>
          </Binary>
        </contained>
        <contained>
          <Binary>
          <id value="image3"/>
          <contentType value="image/png"/>
          <data value=""/>
          </Binary>
        </contained>
        <contained>
          <Binary>
          <id value="image4"/>
          <contentType value="image/png"/>
          <data value=""/>
          </Binary>
        </contained>
        <extension url="http://hl7.org/fhir">
          <valueReference>
          <reference value="#image1"/>
          </valueReference>
          </extension>
        <extension url="http://hl7.org/fhir">
          <valueReference>
          <reference value="#image2"/>
          </valueReference>
          </extension>
        <extension url="http://hl7.org/fhir">
          <valueReference>
          <reference value="#image3"/>
          </valueReference>
          </extension>
        <extension url="http://hl7.org/fhir">
          <valueReference>
          <reference value="#image4"/>
          </valueReference>
          </extension>

        <type>
          <coding>
            <system value="2.16.840.1.113883.6.1"/>
            <code value="42229-5"/>
            <display value="PACKAGE INSERT"/>
          </coding>
        </type>
        <subject>
          <reference value="urn:uuid:1ea89061-dc21-4e27-a888-30ac92d36d54"/>
        </subject>
        <author>
          <reference value="urn:uuid:8034cbe0-622b-4fe3-bbdf-0ed521bb06d0"/>
        </author>
        <title value="Abrysvo LLD SPC 20240318-2"/>
        
        <section>
          <title value="PACKAGE INSERT"/>
          <code>
            <coding>
              <system value="2.16.840.1.113883.6.1"/>
              <code value="42229-5"/>
              <display value="PACKAGE INSERT"/>
            </coding>
          </code>
          <text>
            <status value="generated"/>
            <div xmlns="http://www.w3.org/1999/xhtml">
              <p><strong>艾沛兒呼吸道融合病毒疫苗</strong></p>
              <p><strong>Abrysvo, Respiratory Syncytial Virus Vaccine, powder and solvent for solution for injection</strong></p>
              <p>衛部菌疫輸字第001267號</p>
              <p>須由醫師處方使用</p>
            </div>
          </text>
        </section>

        <section id="49e6368c-5bc0-4c3b-b1fe-4fae9b8fceba">
            <title value="性狀"/>
            <code>
              <coding>
                <system value="2.16.840.1.113883.6.1"/>
                <code value="42229-5"/>
                <display value="PHARMACEUTICAL PARTICULARS"/>
              </coding>
            </code>
            <text>
              <status value="generated"/>
              <div xmlns="http://www.w3.org/1999/xhtml">
                <p><strong>1. 性狀</strong></p>
                <p><strong>1.1有效成分及含量</strong></p>
                <p>配製後，一劑 (0.5 mL) 含有：</p>
                <p>RSV 亞群 A 穩定融合前 F 抗原<sup>1,2</sup> 60 微克</p>
                <p>RSV 亞群 B 穩定融合前 F 抗原<sup>1,2</sup> 60 微克</p>
                <p>（RSV 抗原）</p>
                <p><sup>1</sup>穩定融合前結構的醣蛋白 F</p>
                <p><sup>2</sup>利用重組 DNA 技術在中國倉鼠卵巢細胞中製造生產</p>
                <p><strong>1.2賦形劑</strong></p>
                <p><u>粉末</u></p>
                <p>氨丁三醇（Trometamol）</p>
                <p>三羥甲基胺基甲烷（Trometamol hydrochloride）</p>
                <p>蔗糖（Sucrose）</p>
                <p>甘露醇（Mannitol）</p>
                <p>聚山梨醇酯 80（Polysorbate 80）</p>
                <p>氯化鈉</p>
                <p>鹽酸（用於調整 pH 值）</p>
                <p><u>溶劑</u></p>
                <p>注射用水</p>
                <p><strong>1.3劑型</strong></p>
                <p>注射液粉末及溶劑。</p>
                <p><strong>1.4藥品外觀</strong></p>
                <p>粉末為白色。</p>
                <p>溶劑為澄清無色液體。</p>
              </div>
            </text>
          </section>

          <section id="0d11df54-23a1-4208-b389-ec9cdd621da6">
            <title value="適應症"/>
            <code>
              <coding>
                <system value="2.16.840.1.113883.6.1"/>
                <code value="34067-9"/>
                <display value="INDICATIONS AND USAGE"/>
              </coding>
            </code>
            <text>
              <status value="generated"/>
              <div xmlns="http://www.w3.org/1999/xhtml">
                <p><strong>2. 適應症 </strong></p>
                <p>• 母體在懷孕期間接種，提供出生至 6 個月大嬰兒被動免疫，以預防呼吸道融合病毒所引起之下呼吸道疾病 (lower respiratory tract disease，LRTD)。</p>
                <p>• 60 歲以上成人之主動免疫接種，以預防呼吸道融合病毒所引起的下呼吸道疾病 (lower respiratory tract disease，LRTD)。</p>
                <p>應遵照官方建議使用Abrysvo。</p>
              </div>
            </text>
          </section>

          <section id="7a9d33f5-6389-4cc7-8314-d6276016e973">
            <title value="用法及用量"/>
            <code>
              <coding>
                <system value="2.16.840.1.113883.6.1"/>
                <code value="34068-7"/>
                <display value="DOSAGE AND ADMINISTRATION"/>
              </coding>
            </code>
            <text>
              <status value="generated"/>
              <div xmlns="http://www.w3.org/1999/xhtml">
                <p><strong>3. 用法及用量</strong></p>
                <p><strong>3.1用法用量</strong></p>
                <p><u>劑量</u></p>
                <p><u><i>懷孕婦女</i></u></p>
                <p>應在懷孕第 24 週至第 36 週之間投予單一劑量 0.5 毫升（參閱第 <a href="#a0bd7175-e0b0-4945-ae6c-4de076fde3f7">5.1</a> 節和第 <a href="#1a569a49-8b1e-4951-b27c-dcf08596f5d1">12</a> 節）。</p>
                <p><u><i>60 歲以上成人</i></u></p>
                <p>應投予單一劑量 0.5 毫升。</p>
                <p><u><i>兒童族群</i></u></p>
                <p>兒童（從出生到未滿 18 歲）使用 Abrysvo 的安全性與效力尚未確立。關於懷孕青少年及其嬰兒的資料有限（參閱第 <a href="#1a569a49-8b1e-4951-b27c-dcf08596f5d1">12</a> 節）。</p>
                <p><u>用法</u></p>
                <p>Abrysvo 用於肌肉注射至上臂的三角肌區域。</p>
                <p>疫苗不應與任何其他疫苗或藥品混合。</p>
                <p>針對給藥前配製和處理藥品的方法指示，參閱第 <a href="#7a9d33f5-6389-4cc7-8314-d6276016e973">3.2</a> 節。</p>
                <p><strong>3.2調製方式</strong></p>
                <p>針對 Abrysvo 抗原藥瓶（粉末）、預充填的溶劑注射器和藥瓶轉接器的使用</p>
                <p>施用前，欲配製 Abrysvo，一定要使用藥瓶轉接器（vial adaptor）將溶劑的預充填注射器中之全部內容物添加到含有粉末的小瓶中。</p>
                <p><strong>疫苗只能用提供的溶劑進行配製。</strong></p>
                <p><u>施用準備</u></p>
                <p>
                <img src="#image1"
                alt="Figure 1"
                style="width:7in;height:2.5in"/> 
                </p>
                <table>
                  <thead>
                  <tr class="header">
                  <th align="left"><img src="#image2" alt="Figure 2" style="width:2in;height:2in"/></th>
                  <th align="left"><p><strong>步驟 1. 接上藥瓶轉接器（vial adaptor）</strong></p>
                  <p>撕開藥瓶轉接器包裝上的封蓋，並且移除藥瓶上的翻蓋。</p>
                  <p>維持藥瓶轉接器放在包裝中，以藥瓶塞子為中心，並直接垂直向下推動連接。請勿在推入藥瓶轉接器時有任何角度偏移，因為這可能會導致發生洩漏。移除包裝。</p></th>
                  </tr>
                  </thead>
                  <tbody>
                  </tbody>
                  </table>
                <table>
                  <thead>
                  <tr class="header">
                  <th align="left"><img src="#image3" alt="Figure 3" style="width:2in;height:2in"/></th>
                  <th align="left"><p><strong>步驟 2. 將粉末（抗原）配製成 Abrysvo</strong></p>
                  <p>針對所有注射器組裝步驟，拿取注射器時只能握住旋鎖接口（Luer lock）轉接頭。這將避免旋鎖接口（Luer lock）轉接頭在使用過程中分離。</p>
                  <p>扭轉取下注射器蓋，然後扭轉以將注射器連接到藥瓶轉接器。當您感到阻力時，停止轉動。</p>
                  <p>將注射器之全部內容物注入至藥瓶中。按下柱塞杆並且輕輕旋轉藥瓶，直到粉末完全溶解（約 1 至 2 分鐘）。請勿用力搖晃。</p></th>
                  </tr>
                  </thead>
                  <tbody>
                  </tbody>
                  </table>
                <table>
                  <thead>
                  <tr class="header">
                  <th align="left"><img src="#image4" alt="Figure 4" style="width:2in;height:2in"/></th>
                  <th align="left"><p><strong>步驟 3. 回抽配製後的疫苗</strong></p>
                  <p>將藥瓶完全倒置，並且慢慢回抽注射器的全部內容物，以確保 Abrysvo 的劑量為 0.5 mL。</p>
                  <p>扭轉以斷開注射器與藥瓶轉接器的連接。</p>
                  <p>接上適用於肌肉注射的無菌針頭。</p></th>
                  </tr>
                  </thead>
                  <tbody>
                  </tbody>
                  </table>
                  <p>配製後的疫苗為澄清無色溶液。施打之前，應先目視檢查疫苗是否有大顆粒物和變色的現象。如果發現大顆粒物或變色，請勿使用。</p>
                  <p><u>藥物不相容性</u></p>
                  <p>在無相容性試驗的情況下，本藥品絕對不得與其他藥品混合。</p>
            </div>
            </text>
          </section>

          <section id="a9b31399-cbd4-4559-8ceb-81a872634bb5">
            <title value="禁忌"/>
            <code>
              <coding>
                <system value="2.16.840.1.113883.6.1"/>
                <code value="34070-3"/>
                <display value="CONTRAINDICATIONS"/>
              </coding>
            </code>
            <text>
              <status value="generated"/>
              <div xmlns="http://www.w3.org/1999/xhtml">
                <p><strong>4.禁忌</strong></p>
                <p>對活性成分或任何列於第 1.2 節之賦形劑嚴重過敏。</p>
              </div>
            </text>
          </section>

          <section id="a0bd7175-e0b0-4945-ae6c-4de076fde3f7">
            <title value="警語及注意事項"/>
            <code>
              <coding>
                <system value="2.16.840.1.113883.6.1"/>
                <code value="43685-7"/>
                <display value="WARNINGS AND PRECAUTIONS"/>
              </coding>
            </code>
            <text>
              <status value="generated"/>
              <div xmlns="http://www.w3.org/1999/xhtml">
                <p><strong>5. 警語及注意事項</strong></p>
                <p><strong>5.1警語/注意事項</strong></p>
                <p><u>過敏（Hypersensitivity）和立即性嚴重過敏（Anaphylaxis）</u></p>
                <p>應隨時準備好適當的醫療處置和監測，以因應疫苗接種後可能發生的立即性嚴重過敏事件。</p>
                <p><u>焦慮相關反應</u></p>
                <p>接種疫苗時，被接種者可能會有對針頭注射產生心因性的焦慮相關反應，包括血管迷走神經反應（暈厥）、過度換氣或壓力相關反應。重要的是須有確實的措施以避免因暈厥引發的傷害。</p>
                <p><u>同時患有其他疾病</u></p>
                <p>罹患急性疾病伴隨發燒者應延後接種。而輕微感染者如感冒時，不應延後接種疫苗。</p>
                <p><u>血小板減少症與凝血疾病</u></p>
                <p>對於患有血小板減少症或任何凝血疾病者應謹慎給予Abrysvo ，因這些人士可能在肌肉注射後出血或瘀青。</p>
                <p><u>免疫功能不全者</u></p>
                <p>目前針對免疫功能不全者（包括正接受免疫抑制劑治療者），尚未評估本疫苗的效力和安全性。Abrysvo的效力在免疫功能不全之個人中可能較低。</p>
                <p><u>懷孕週數小於24週者</u></p>
                <p>Abrysvo尚未在懷孕未滿24週的孕婦中進行研究。由於保護嬰兒免受呼吸道融合病毒感染取決於母體抗體透過胎盤的轉移程度，應在懷孕24至36週之間施打Abrysvo（參閱第 <a href="#7a9d33f5-6389-4cc7-8314-d6276016e973">3.1</a> 和 <a href="#1a569a49-8b1e-4951-b27c-dcf08596f5d1">12</a> 節）。</p>
                <p><u>疫苗效果限制</u></p>
                <p>與任何疫苗一樣，並非在疫苗接種後都能引發保護性免疫反應。</p>
                <p><u>賦形劑</u></p>
                <p>本藥品每劑量含有不到1 mmol的鈉 (23 mg) ，基本上可稱為「無鈉」。</p>
                <b>5.3操作機械能力</b>
                <p>Abrysvo 對於駕駛及操作機械能力沒有影響或可忽略。</p>
              </div>
              </text>
          </section>

          <section id="74fcbe0a-fb3e-4691-aaa3-5b38ebfdfab3">
            <title value="特殊族群注意事項"/>
            <code>
              <coding>
                <system value="2.16.840.1.113883.6.1"/>
                <code value="43684-0"/>
                <display value="USE IN SPECIFIC POPULATIONS SECTION"/>
              </coding>
            </code>
            <text>
              <status value="generated"/>
              <div xmlns="http://www.w3.org/1999/xhtml">
                <p><strong>6. 特殊族群注意事項</strong></p>
                <p><strong>6.1懷孕</strong></p>
                <p>懷孕女性的資料（超過4000個使用結果）顯示無畸形或胎兒/新生兒毒性。</p>
                <p>針對生殖毒性而言，使用 Abrysvo 進行動物研究的結果並未證實其會造成直接或間接的傷害（請參閱第 <a href="#a1488bbb-121e-4a03-b077-89a9a6cce958">10.3</a> 節）。</p>
                <p><u>動物數據</u></p>
                <p>在一項生育力和產前及產後發育毒性的聯合試驗中，將相當於 2 倍臨床劑量的Abrysvo (含或不含 Al[OH]<sub>3</sub>) (每劑注射 0.5 mL)，以肌肉注射方式，在以下四個給藥日對雌性 NZW 兔子進行施打：在交配開始前 21 天和 7 天，接著在懷孕第 10 天和第 24 天。施用 Abrysvo 的動物（無論含或不含Al(OH)<sub>3</sub>）及其胎兒和幼兔都引發了功能性抗體反應。沒有觀察到母體毒性或對交配表現、雌性生育力，或胚胎-胎兒或出生後幼仔的存活、生長或發育造成影響。</p>
                <p>在一項第3期試驗（試驗 1）中，Abrysvo組（14%）和安慰劑組（13%）在接種疫苗後1個月內通報的母體不良事件相似。</p>
                <p>最高至 24 個月大的嬰兒中未檢測到安全性訊號。Abrysvo組 (37%）和安慰劑組（35%）嬰兒出生後 1 個月內通報的不良事件發生率相似。Abrysvo組與安慰劑相比，評估的主要出生結果包括早產（分別為 201（6%）和 169（5%））、低出生體重（分別為 181（5%）和 155（4%））以及先天性畸形（分別為174（5%）或 203（6%））。</p>
                <p><strong>6.2哺乳</strong></p>
                <p>目前尚不清楚 Abrysvo 是否會進入人類乳汁。Abrysvo 在接種過疫苗的母親哺乳之新生兒中未顯示出不良反應。</p>
                <p><strong>6.3有生育能力的女性與男性</strong></p>
                <p>目前沒有關於 Abrysvo 對人類生殖力影響的資料。</p>
                <p>動物研究的結果並未證實其對雌性生殖能力會造成直接或間接的傷害（請參閱第 <a href="#a1488bbb-121e-4a03-b077-89a9a6cce958">10.3</a> 節）。</p>
          </div>
            </text>
          </section>

  <section id="58d099bc-d380-4825-bc1c-92cea8426dcd">
    <title value="交互作用"/>
    <code>
      <coding>
        <system value="2.16.840.1.113883.6.1"/>
        <code value="34073-7"/>
        <display value="DRUG INTERACTIONS SECTION"/>
      </coding>
    </code>
    <text>
      <status value="generated"/>
      <div xmlns="http://www.w3.org/1999/xhtml">
        <p><strong>7. 交互作用</strong></p>
<p>Abrysvo 可以與季節性四價流感疫苗（QIV，表面抗原，去活化，有佐劑的）同時接種。在一項針對 65 歲及以上成人的隨機試驗中，同時施用組與單獨施用組相比免疫反應符合不劣性的條件。然而，當 Abrysvo 和去活化有佐劑的季節性流感疫苗同時施用時，觀察到的 RSV A 和 RSV B 中和效價以及 A 型和 B 型流感血凝抑制效價比單獨施打時低。此發現的臨床關聯性仍不明。</p>
<p>在健康的非懷孕女性中，同時施打 Abrysvo 與破傷風、減量白喉、非細胞型百日咳混合疫苗 (Tdap) 時沒有安全性疑慮。同時施打時對 RSV A、RSV B、白喉和破傷風的免疫反應並不劣於單獨施用後的免疫反應。然而，與單獨施用相比，同時施打對百日咳成分的免疫反應較低，並且未能符合不劣性條件。此發現的臨床關聯性仍不明。</p>
  </div>
    </text>
  </section>

<section id="60d806f4-d64e-49a6-9560-497c900eea1d">
  <title value="副作用/不良反應"/>
  <code>
    <coding>
      <system value="2.16.840.1.113883.6.1"/>
      <code value="34084-4"/>
      <display value="ADVERSE REACTIONS SECTION"/>
    </coding>
  </code>
  <text>
    <status value="generated"/>
    <div xmlns="http://www.w3.org/1999/xhtml">
      <p><strong>8 副作用/不良反應</strong></p>
<p><strong>8.1臨床重要副作用/不良反應</strong></p>
<p><u>安全性特性摘要</u></p>
<p><u><i>懷孕</i></u></p>
<p>在懷孕24至36週的懷孕女性中，最常通報的不良反應是疫苗接種部位疼痛（41%）、頭痛（31%）和肌痛（27%）。懷孕受試者的大多數局部和全身反應的嚴重程度為輕度至中度，並在發生後2至3天內緩解。</p>
<p><u><i>年齡60歲以上</i></u></p>
<p>在60歲以上的成人中，最常通報的不良反應是疫苗接種部位疼痛（11%）。大多數反應的嚴重程度為輕度至中度，並在發生後1至2天內緩解。</p>
<p><u>不良反應列表</u></p>
<p>在第 3 期臨床試驗中評估了對懷孕24至36週的懷孕女性（n=3,682）和60歲以上的成人（n=18,575）給予單一劑量Abrysvo的安全性。</p>
<p>不良反應依下述發生頻率分別列出：</p>
<p>非常常見（≥1/10）；</p>
<p>常見 (≥1/100 至 &lt;1/10)</p>
<p>不常見（≥1/1000 至 &lt;1/100）</p>
<p>罕見（≥1/10,000 至 &lt;1/1,000）</p>
<p>非常罕見（&lt;1/10,000）</p>
<p>未知（無法以現有資料估算）</p>
<p>通報的不良反應按系統器官分類列出，按嚴重程度降序排列。</p>
<p><strong>表 1施打 Abrysvo 後的不良反應</strong></p>
<table>
<thead>
<tr class="header">
<th align="left">系統器官分類</th>
<th align="left"><p>藥物不良反應發生於</p>
<p><strong>≤49 歲的懷孕女性</strong></p></th>
<th align="left"><p>藥物不良反應發生於</p>
<p><strong>≥60 歲的成人</strong></p></th>
</tr>
</thead>
<tbody>
<tr class="odd">
<td align="left">免疫系統疾病</td>
</tr>
<tr class="even">
<td align="left">過敏</td>
<td align="left"></td>
<td align="left">非常罕見</td>
</tr>
<tr class="odd">
<td align="left">神經系統異常</td>
</tr>
<tr class="even">
<td align="left">頭痛</td>
<td align="left">非常常見</td>
<td align="left"></td>
</tr>
<tr class="odd">
<td align="left">格林-巴利症候群( Guillain-Barré syndrome)</td>
<td align="left"></td>
<td align="left">罕見<sup>a</sup></td>
</tr>
<tr class="even">
<td align="left">骨骼肌肉及結締組織疾病</td>
</tr>
<tr class="odd">
<td align="left">肌痛</td>
<td align="left">非常常見</td>
<td align="left"></td>
</tr>
<tr class="even">
<td align="left">一般疾病及投與部位情況</td>
</tr>
<tr class="odd">
<td align="left">疫苗接種部位疼痛</td>
<td align="left">非常常見</td>
<td align="left">非常常見</td>
</tr>
<tr class="even">
<td align="left">疫苗接種部位發紅</td>
<td align="left">常見</td>
<td align="left">常見</td>
</tr>
<tr class="odd">
<td align="left">疫苗接種部位腫脹</td>
<td align="left">常見</td>
<td align="left">常見</td>
</tr>
</tbody>
</table>
<p><sup>a</sup> 在一項針對 60 歲以上成人的試驗中，通報了一例格林-巴利症候群和一例米勒-費雪爾症候群 (Miller Fisher syndrome) ，分別在接種 Abrysvo 疫苗後 7 天和 8 天發生，試驗主持人評估其可能與接種的疫苗有關。這兩例案例有混雜因素，或有另一種病因。另外一例案例在接種 Abrysvo 疫苗 8 個月後發生，試驗主持人評估為與接種的疫苗無關。安慰劑組在施用 14 個月後通報了一例格林-巴利症候群案例。</p>
<p><u>疑似不良反應的通報</u></p>
<p>核准後的疑似不良反應通報十分重要。這可助於持續監測藥品效益/風險平衡。</p>
</div>
  </text>
</section>

<section id="d9e74631-082e-4758-8f76-98575d4207ad">
  <title value="過量"/>
  <code>
    <coding>
      <system value="2.16.840.1.113883.6.1"/>
      <code value="34088-5"/>
      <display value="OVERDOSAGE SECTION"/>
    </coding>
  </code>
  <text>
    <status value="generated"/>
    <div xmlns="http://www.w3.org/1999/xhtml">
      <p><strong>9. 過量</strong></p>
      <p>Abrysvo 為單一劑量包裝，不太可能施用過量。</p>
      <p>Abrysvo 過量並無任何特定治療方法。如果施藥過量，建議適時觀察個人並給予症狀治療。</p>
</div>
  </text>
</section>

<section id="a1488bbb-121e-4a03-b077-89a9a6cce958">
  <title value="藥理特性"/>
  <code>
    <coding>
      <system value="2.16.840.1.113883.6.1"/>
      <code value="34090-1"/>
      <display value="CLINICAL PHARMACOLOGY SECTION"/>
    </coding>
  </code>
  <text>
    <status value="generated"/>
    <div xmlns="http://www.w3.org/1999/xhtml">
      <p><strong>10. 藥理特性</strong></p>
      <p><strong>10.1作用機轉</strong></p>
      <p>Abrysvo 含有代表 RSV-A 和 RSV-B 亞群的兩種重組穩定的 RSV 融合前 F 抗原。融合前 F 抗原是阻斷 RSV 感染之中和抗體的主要目標。肌肉注射後，融合前 F 抗原會引發免疫反應，從而預防 RSV 病毒相關的下呼吸道疾病。</p>
      <p><strong>10.2藥效藥理特性</strong></p>
      <p>藥物治療類別：疫苗、其他病毒性疫苗；ATC代碼：J07BX05</p>
      <p>在懷孕 24 至 36 週期間接種 Abrysvo 疫苗之母親所生的嬰兒中，對 RSV 相關下呼吸道疾病的保護作用源自 RSV 中和抗體的胎盤轉移。60 歲及以上的成人透過主動性免疫接種獲得保護。</p>
      <p><strong>10.3臨床前安全性資料</strong></p>
      <p><strong>10.3.1致癌性、突變性及生育力損傷</strong></p>
      <p>目前 Abrysvo 尚未進行致癌性、突變性或雄性生育力損傷的評估。</p>
    </div>
  </text>
</section>

<section id="3d4a8843-cdf5-4f79-9567-40999f68f363">
  <title value="藥物動力學特性"/>
  <code>
    <coding>
      <system value="2.16.840.1.113883.6.1"/>
      <code value="43682-4"/>
      <display value="PHARMACOKINETICS SECTION"/>
    </coding>
  </code>
  <text>
    <status value="generated"/>
    <div xmlns="http://www.w3.org/1999/xhtml">
      <p><strong>11. 藥物動力學特性</strong></p>
      <p>不適用。</p>
    </div>
  </text>
</section>

<section id="1a569a49-8b1e-4951-b27c-dcf08596f5d1">
  <title value="臨床試驗資料"/>
  <code>
    <coding>
      <system value="2.16.840.1.113883.6.1"/>
      <code value="34092-7"/>
      <display value="CLINICAL STUDIES SECTION"/>
    </coding>
  </code>
  <text>
    <status value="generated"/>
    <div xmlns="http://www.w3.org/1999/xhtml">
      <p><strong>12. 臨床試驗資料</strong></p>
      <p><strong><u><i>接種疫苗的孕婦其出生到至 6 個月大的嬰兒</i></u></strong></p>
      <p>試驗 1 是一項第 3 期、多中心、隨機分配（1:1）、雙盲、安慰劑對照試驗，旨在評估單一劑量 Abrysvo 預防懷孕 24 至 36 週接種疫苗之孕婦所生嬰兒呼吸道融合病毒相關下呼吸道疾病的效力。尚未確定後續孕期是否需要再次接種。</p>
      <p>試驗中評估定義RSV相關的下呼吸道疾病為:須就醫且經反轉錄聚合酶連鎖反應（RT-PCR）確診、並具有以下一種或多種呼吸道症狀：呼吸急促、血氧飽和度低（SpO<sub>2</sub> &lt;95%）和胸壁凹陷。符合RSV 相關的嚴重下呼吸道疾病的定義則為符合上述RSV相關的下呼吸道疾病、及以下至少一項的症狀：呼吸非常短促、血氧飽和度低（SpO<sub>2</sub> &lt;93%）、須透過鼻導管或機械換氣法進行高流量氧氣補充、加護病房（ICU）住院 &gt;4 小時，和/或無反應/昏迷。</p>
      <p>疫苗效力（vaccine efficacy，VE）被定義為與安慰劑組相比，施打Abrysvo 組之孕婦所生嬰兒的RSV下呼吸道疾病的相對風險降低 (relative risk reduction)。同時評估兩項主要效力指標，即發生在出生後 90、120、150 或 180 天內 ˹RSV 陽性且需要就醫之嚴重下呼吸道疾病˼和 ˹RSV 陽性且需要就醫的下呼吸道疾病˼。</p>
      <p>在接種 Abrysvo 疫苗的懷孕女性中，65% 是白人，20% 是黑人或非裔美國人，29% 是西班牙裔/拉丁裔。年齡中位數為 29 歲（範圍 16-45 歲）； 0.2% 的參與者年齡未滿 18 歲，4.3% 的參與者年齡未滿 20 歲。接種疫苗時的妊娠週數中位數為 31 週又 2 天（範圍為 24 週又 0 天至 36 週又 4 天）。出生時妊娠週數中位數為 39 週又 1 天（範圍為 27 週又 3 天至 43 週又 6 天）。</p>
      <p>疫苗效力如表 2 和表 3 所示。</p>
      <p><strong>表 2 Abrysvo 透過對孕婦進行主動免疫接種，對出生至 6 個月大的嬰兒因 RSV 引起，嚴重且需要就醫之下呼吸道疾病的疫苗效力 – 試驗1</strong></p>
      <table>
<tbody>
<tr class="odd">
<td align="left">時期</td>
<td align="left"><p>Abrysvo</p>
<p>個案數</p>
<p><strong>N=3 495</strong></p></td>
<td align="left"><p>安慰劑</p>
<p>個案數</p>
<p><strong>N=3 480</strong></p></td>
<td align="left"><p>VE %</p>
<p>(CI)<sup>a</sup></p></td>
</tr>
<tr class="even">
<td align="left">90 天</td>
<td align="left">6</td>
<td align="left">33</td>
<td align="left">81.8 (40.6, 96.3)</td>
</tr>
<tr class="odd">
<td align="left">120 天</td>
<td align="left">12</td>
<td align="left">46</td>
<td align="left">73.9 (45.6, 88.8)</td>
</tr>
<tr class="even">
<td align="left">150 天</td>
<td align="left">16</td>
<td align="left">55</td>
<td align="left">70.9 (44.5, 85.9)</td>
</tr>
<tr class="odd">
<td align="left">180 天</td>
<td align="left">19</td>
<td align="left">62</td>
<td align="left">69.4 (44.3, 84.1)</td>
</tr>
</tbody>
      </table>
      <p>CI = 信賴區間；VE = 疫苗效力</p>
      <p><sup>a</sup> 90 天時的 CI 為 99.5%；之後的間隔則為 97.58% CI</p>
      <p><strong>表 3 Abrysvo 透過對孕婦進行主動免疫接種，對出生至 6 個月大的嬰兒因 RSV 引起，且需要就醫之下呼吸道疾病的疫苗效力 – 試驗1</strong></p>
      <table>
<tbody>
<tr class="odd">
<td align="left">時期</td>
<td align="left"><p>Abrysvo</p>
<p>個案數</p>
<p><strong>N=3 495</strong></p></td>
<td align="left"><p>安慰劑</p>
<p>個案數</p>
<p><strong>N=3 480</strong></p></td>
<td align="left"><p>VE %</p>
<p>(CI)<sup>a</sup></p></td>
</tr>
<tr class="even">
<td align="left">90 天</td>
<td align="left">24</td>
<td align="left">56</td>
<td align="left">57.1 (14.7, 79.8)</td>
</tr>
<tr class="odd">
<td align="left">120 天</td>
<td align="left">35</td>
<td align="left">81</td>
<td align="left">56.8 (31.2, 73.5)</td>
</tr>
<tr class="even">
<td align="left">150 天</td>
<td align="left">47</td>
<td align="left">99</td>
<td align="left">52.5 (28.7, 68.9)</td>
</tr>
<tr class="odd">
<td align="left">180 天</td>
<td align="left">57</td>
<td align="left">117</td>
<td align="left">51.3 (29.4, 66.8)</td>
</tr>
</tbody>
      </table>
      <p>CI = 信賴區間；VE = 疫苗效力</p>
      <p><sup>a</sup> 90 天時的 CI 為 99.5%；之後的間隔則為 97.58% CI</p>
      <p><b><u><i>主動免疫接種年齡60歲以上的成人</i></u></b></p>
      <p>試驗 2 是一項第 3 期、多中心、隨機分配、雙盲、安慰劑對照試驗，旨在評估 Abrysvo 預防年齡 60 歲以上成人之 RSV 相關下呼吸道疾病的效力。</p>
      <p>定義 RSV 相關的下呼吸道疾病為經 RT-PCR 確診，且在症狀出現後 7 天內出現至少兩種或至少三種之下呼吸道症狀，並在同一疾病期間該症狀持續 1 天以上：新出現咳嗽或咳嗽次數增加、喘鳴、生痰、呼吸短促或呼吸急促（≥25 次呼吸/分鐘或呼吸次數比休息基期[resting baseline]增加 15%）。</p>
      <p>隨機分配受試者（1:1）至接受 Abrysvo（n=18,488) 或安慰劑（n=18,479）。依照年齡 60-69 歲（63%）、70-79歲（32%）和 ≥80 歲（5%）進行分層納入。具有穩定慢性共病的受試者符合參加本試驗的資格中， 52% 的參與者至少有 1 種事先定義的特定疾病：16% 的參與者患有穩定的慢性心肺疾病，如氣喘（9%）、慢性阻塞性肺病（7%）或鬱血性心臟衰竭（2%）。免疫功能不全的個人不符合試驗資格。</p>
      <p>主要目的是評估疫苗效力（VE），即與安慰劑組相比，在第一個 RSV 季節，Abrysvo 組首次出現 RSV 相關下呼吸道疾病的相對風險降低 (relative risk reduction)。</p>
      <p>在接種 Abrysvo 的參與者中，51% 是男性，80% 是白人，12% 是黑人或非裔美國人，41% 是西班牙裔/拉丁裔。參與者的中位數年齡為 67 歲（範圍：59 - 95 歲）。</p>
      <p>在第一個 RSV 季節結束時，分析顯示 Abrysvo 在減少 RSV 相關之下呼吸道疾病（症狀 ≥2 個和症狀 ≥3 個）方面具有統計顯著效力。</p>
      <p>疫苗效力如表 4 所示。</p>
      <p><strong>表 4 Abrysvo 對 RSV 疾病的疫苗效力 – 主動免疫接種年齡 60 歲及以上的個人 – 試驗 2</strong></p>
      <table>
<tbody>
<tr class="odd">
<td align="left">效力指標</td>
<td align="left"><p>Abrysvo</p>
<p>個案數</p>
<p><strong>N=18,058</strong></p></td>
<td align="left"><p>安慰劑</p>
<p>個案數</p>
<p><strong>N=18,076</strong></p></td>
<td align="left"><p>VE (%)</p>
<p>(95% CI)</p></td>
</tr>
<tr class="even">
<td align="left">首次出現 RSV 相關下呼吸道疾病， ≥2 個症狀<sup>a</sup></td>
<td align="left">15</td>
<td align="left">43</td>
<td align="left">65.1 (35.9, 82.0)</td>
</tr>
<tr class="odd">
<td align="left">首次出現 RSV 相關下呼吸道疾病， ≥3 個症狀<sup>b</sup></td>
<td align="left">2</td>
<td align="left">18</td>
<td align="left">88.9 (53.6, 98.7)</td>
</tr>
</tbody>
      </table>
      <p>CI - 信賴區間；RSV –呼吸道融合病毒；VE - 疫苗效力</p>
      <p><sup>a</sup>在 RSV 亞群 A（Abrysvo n=3，安慰劑 n=16）的探索性分析中，VE 為 81.3% (CI 34.5, 96.5)； 在 RSV 亞群 B（Abrysvo n=12，安慰劑 n=26）中，VE 為 53.8% (CI 5.2, 78.8)。</p>
      <p><sup>b</sup> 在 RSV 亞群 A（Abrysvo n=1，安慰劑 n=5）的探索性分析中，VE 為 80.0% (CI -78.7, 99.6)； 在 RSV 亞群 B（Abrysvo n=1，安慰劑 n=12）中，VE 為 91.7% (CI 43.7, 99.8)。</p>
</div>
  </text>
</section>

<section id="863bfbf5-a9d0-45bc-87c4-7b3c9168746f">
  <title value="包裝及儲存"/>
  <code>
    <coding>
      <system value="2.16.840.1.113883.6.1"/>
      <code value="34069-5"/>
      <display value="HOW SUPPLIED SECTION"/>
    </coding>
  </code>
  <text>
    <status value="generated"/>
    <div xmlns="http://www.w3.org/1999/xhtml">
      <p><strong>13. 包裝及儲存</strong></p>
      <p><strong>13.1包裝</strong></p>
      <p><u>粉末</u></p>
      <p>1 劑粉末裝在小瓶（第 1 型玻璃或同等產品）中，帶有塞子（合成氯化丁基橡膠）和翻蓋</p>
      <p><u>溶劑</u></p>
      <p>預充填注射器（第 1 型玻璃）中的 1 劑溶劑，帶有塞子（合成氯化丁基橡膠）和尖帽（合成異戊二烯/溴丁基共混橡膠）</p>
      <p><u>藥瓶轉接器</u></p>
      <p>無菌藥瓶轉接器</p>
      <p><u>包裝規格：</u></p>
      <p>包裝包含 1 小瓶粉末（抗原）、1 個溶劑的預充填注射器、1 個配置 1 個針頭的藥瓶轉接器（1 劑包裝）。</p>
      <p>包裝包含 5 小瓶粉末（抗原）、5 個溶劑的預充填注射器、5 個配置 5 個針頭的藥瓶轉接器（5 劑包裝）。</p>
      <p>可能並非所有包裝規格皆已上市。</p>
      <p><strong>13.2效期</strong></p>
      <p>請見外盒標示。</p>
      <p><strong>13.3儲存條件</strong></p>
      <p>請儲存於冷藏庫（2℃ - 8℃）。</p>
      <p>請勿冷凍。如果紙盒已冷凍，請棄置。</p>
      <p>未開封的藥瓶在 8℃ 至 30℃ 的溫度下儲存時，安定性為 5 天。在此期間結束時，應使用或棄置 Abrysvo。這些資訊僅用於在臨時溫度偏離的情况下給健康照護專業人員之指示。</p>
      <p><u>配製後</u></p>
      <p>Abrysvo 應在配製後立即施打，如果儲存在 15℃ 至 30℃ 之間，則應在 4 小時內施打。請勿冷凍。</p>
      <p>在 15℃ 至 30℃ 間的化學和物理使用安定性已證實為 4 小時。從微生物學的角度來看，藥品應立即使用。若未立即使用，使用者須負責注意使用前的使用中儲存時間和環境。</p>
</div>
  </text>
</section>

<section id="4ba4dd56-952d-4c03-8596-bc0bef71238c">
  <title value="其他"/>
  <code>
    <coding>
      <system value="2.16.840.1.113883.6.1"/>
      <code value="42229-5"/>
      <display value="SPL UNCLASSIFIED SECTION"/>
    </coding>
  </code>
  <text>
    <status value="generated"/>
    <div xmlns="http://www.w3.org/1999/xhtml">
      <p><strong>15. 其他</strong></p>
      <p>版本：SPC 20240318-2</p>
      <p>成品及溶劑製造廠：Pfizer Manufacturing Belgium N.V.</p>
      <p>地 址：Rijksweg 12, 2870 Puurs-Sint-Amands, Belgium</p>
      <p>成品及溶劑二級包裝廠：Pfizer Manufacturing Belgium N.V.</p>
      <p>地 址：Rijksweg 12, 2870 Puurs-Sint-Amands, Belgium</p>
      <p>或</p>
      <p>成品及溶劑二級包裝廠：Hospira, Inc.</p>
      <p>地 址：1776 North Centennial DriveMcPherson, KS 67460, USA</p>
      <p>藥 商：輝瑞大藥廠股份有限公司</p>
      <p>地 址: 台北市信義區松仁路100號42、43樓</p>
</div>
  </text>
</section>
</Composition>
</resource>
</entry>

  <entry>
    <fullUrl value="urn:uuid:8034cbe0-622b-4fe3-bbdf-0ed521bb06d0"/>
    <resource>
      <Organization>
        <id value="8034cbe0-622b-4fe3-bbdf-0ed521bb06d0"/>
        <meta>
          <profile value="http://hl7.org/fhir/uv/emedicinal-product-info/StructureDefinition/Organization-uv-epi"/>
        </meta>
        <identifier>
          <use value="official"/>
          <system value="https://mcp.fda.gov.tw/"/>
          <value value="0c569c77-9667-40cb-b733-4b3c6b385630"/>
        </identifier>
        <active value="true"/>
        <type>
          <coding>
            <system value="https://spor.ema.europa.eu/rmswi"/>
            <code value="220000000034"/>
            <display value="Marketing authorisation holder"/>
          </coding>
        </type>
        <name value="Pfizer Limited"/>
        <contact>
          <address>
            <use value="work"/>
            <type value="physical"/>
            <text value="42, 43F., No. 100, Songren Road, Xinyi District, Taipei City, Taiwan"/>
            <line value="42, 43F., No. 100, Songren Road, Xinyi District"/>
            <city value="Taipei City"/>
            <country value="TW"/>
          </address>
        </contact>
      </Organization>
    </resource>
  </entry>

  <entry>
    <fullUrl value="urn:uuid:82eaaeab-bb28-4082-993c-d55e52ce9284"/>
    <resource>
      <Organization>
        <id value="82eaaeab-bb28-4082-993c-d55e52ce9284"/>
        <meta>
          <profile value="http://hl7.org/fhir/uv/emedicinal-product-info/StructureDefinition/Organization-uv-epi"/>
        </meta>
        <identifier>
          <use value="official"/>
          <system value="https://mcp.fda.gov.tw/"/>
          <value value="65ab5295-97dd-401a-b01d-0e66983b4904"/>
        </identifier>
        <active value="true"/>
        <type>
          <coding>
            <system value="https://spor.ema.europa.eu/rmswi"/>
            <code value="220000000033"/>
            <display value="Manufacturer"/>
          </coding>
        </type>
        <name value="Pfizer Manufacturing Belgium N.V."/>
        <contact>
          <address>
            <use value="work"/>
            <type value="physical"/>
            <text value="Rijksweg 12, 2870 Puurs-Sint-Amands, Antwerp, Belgium"/>
            <line value="Rijksweg 12, 2870 Puurs-Sint-Amands"/>
            <city value="Antwerp"/>
            <country value="DE"/>
          </address>
        </contact>
      </Organization>
    </resource>
  </entry>

  <entry>
    <fullUrl value="urn:uuid:dfdcd278-7df6-4100-af64-0e622f532a7c"/>
    <resource>
      <Organization>
        <id value="dfdcd278-7df6-4100-af64-0e622f532a7c"/>
        <meta>
          <profile value="http://hl7.org/fhir/uv/emedicinal-product-info/StructureDefinition/Organization-uv-epi"/>
        </meta>
        <identifier>
          <use value="official"/>
          <system value="https://mcp.fda.gov.tw/"/>
          <value value="957a0597-67e1-4fbd-aa49-5db6786eaa2b"/>
        </identifier>
        <active value="true"/>
        <type>
          <coding>
            <system value="https://spor.ema.europa.eu/rmswi"/>
            <code value="220000000033"/>
            <display value="Manufacturer"/>
          </coding>
        </type>
        <name value="Hospira, Inc."/>
        <contact>
          <address>
            <use value="work"/>
            <type value="physical"/>
            <text value="1776 North Centennial Drive McPherson, KS 67460, USA"/>
            <line value="1776 North Centennial Drive McPherson"/>
            <city value="Kansas"/>
            <country value="US"/>
          </address>
        </contact>
      </Organization>
    </resource>
  </entry>
  
  <entry>
    <fullUrl value="urn:uuid:8e763d2e-99fb-475f-8852-75516d4efae6"/>
    <resource>
      <RegulatedAuthorization>
        <id value="8e763d2e-99fb-475f-8852-75516d4efae6"/>
        <meta>
          <profile value="http://hl7.org/fhir/uv/emedicinal-product-info/StructureDefinition/RegulatedAuthorization-uv-epi"/>
        </meta>
        <identifier>
          <use value="official"/>
          <system value="https://www.mhra.gov.uk/"/>
          <value value="001267"/>
        </identifier>
        <subject>
          <reference value="urn:uuid:1ea89061-dc21-4e27-a888-30ac92d36d54"/>
        </subject>
        <type>
          <coding>
            <system value="https://spor.ema.europa.eu/v1/lists/220000000060"/>
            <code value="220000000061"/>
            <display value="Marketing Authorisation"/>
          </coding>
        </type>
        <region>
          <coding>
            <system value="https://spor.ema.europa.eu/v1/lists/100000000002"/>
            <code value="100000000538"/>
            <display value="Taiwan"/>
          </coding>
        </region>
        <status>
          <coding>
            <system value="https://spor.ema.europa.eu/v1/lists/100000072049"/>
            <code value="100000072099"/>
            <display value="Valid"/>
          </coding>
        </status>
        <statusDate value="113-10-08"/>
        <holder>
          <reference value="urn:uuid:8034cbe0-622b-4fe3-bbdf-0ed521bb06d0"/>
        </holder>
      </RegulatedAuthorization>
    </resource>
  </entry>

  <entry>
    <fullUrl value="urn:uuid:1ea89061-dc21-4e27-a888-30ac92d36d54"/>
    <resource>
      <MedicinalProductDefinition>
        <id value="1ea89061-dc21-4e27-a888-30ac92d36d54"/>
        <meta>
          <profile value="http://hl7.org/fhir/uv/emedicinal-product-info/StructureDefinition/MedicinalProductDefinition-uv-epi"/>
        </meta>
        <identifier>
          <system value="https://mcp.fda.gov.tw/"/>
          <value value="b9dd4206-a785-48c5-a377-4f662288830e"/>
        </identifier>
        <type>
          <coding>
            <system value="http://hl7.org/fhir/medicinal-product-type"/>
            <code value="MedicinalProduct"/>
            <display value="Medicinal Product"/>
          </coding>
        </type>
        <domain>
          <coding>
            <system value="http://hl7.org/fhir/medicinal-product-domain"/>
            <code value="Human"/>
            <display value="Human use"/>
          </coding>
        </domain>
        <status>
          <coding>
            <system value="http://hl7.org/fhir/publication-status"/>
            <code value="active"/>
            <display value="Active"/>
          </coding>
        </status>
        <statusDate value="2024-10-17T00:00:00"/>
        <legalStatusOfSupply>
          <coding>
            <system value="http://hl7.org/fhir/legal-status-of-supply"/>
            <code value="100000072084"/>
            <display value="Medicinal product subject to medical prescription"/>
          </coding>
        </legalStatusOfSupply>
        <classification>
					<coding>
						<system value="http://hl7.org/fhir/ValueSet/medicinal-product-classification"/>
						<code value="J07BX05"/>
						<display value="respiratory syncytial virus vaccines"/>
					</coding>
				</classification>
        <route>
					<coding>
						<system value="http://hl7.org/fhir/uv/emedicinal-product-info/ValueSet/routeOfAdministration"/>
						<code value="78421000"/>
						<display value="Intramuscular route"/>
					</coding>
				</route>
        <name>
          <productName value="艾沛兒呼吸道融合病毒疫苗 ABRYSVO, Respiratory Syncytial Virus Vaccine, powder and solvent for solution for injection"/>
          <usage>
            <country>
              <coding>
                <system value="http://hl7.org/fhir/ValueSet/country"/>
                <code value="TW"/>
                <display value="Taiwan"/>
              </coding>
            </country>
            <jurisdiction>
              <coding>
                <system value="http://hl7.org/fhir/ValueSet/jurisdiction"/>
                <code value="TW"/>
                <display value="Taiwan"/>
              </coding>
            </jurisdiction>
            <language>
              <coding>
                <system value="http://hl7.org/fhir/ValueSet/all-languages"/>
                <code value="zh"/>
                <display value="Mandarin"/>
              </coding>
            </language>
          </usage>
        </name>
      </MedicinalProductDefinition>
    </resource>
  </entry>

  <entry>
    <fullUrl value="urn:uuid:aeb86110-1123-4c97-86c3-c9d59abc3d53"/>
    <resource>
      <PackagedProductDefinition>
        <id value="aeb86110-1123-4c97-86c3-c9d59abc3d53"/>
        <meta>
          <profile value="http://hl7.org/fhir/uv/emedicinal-product-info/StructureDefinition/PackagedProductDefinition-uv-epi"/>
        </meta>
        <identifier>
          <use value="official"/>
          <system value="https://mcp.fda.gov.tw/"/>
          <value value="548e1db3-faf1-40f5-a07b-25d03b62ac31"/>
        </identifier>
        <name value="ABRYSVO power and solvent for solution for injection"/>
        <type>
          <coding>
            <system value="http://hl7.org/fhir/medicinal-product-type"/>
            <code value="MedicinalProduct"/>
            <display value="Medicinal Product"/>
          </coding>
        </type>
        <packageFor>
          <reference value="urn:uuid:1ea89061-dc21-4e27-a888-30ac92d36d54"/>
        </packageFor>
        <status>
          <coding>
            <system value="http://hl7.org/fhir/publication-status"/>
            <code value="active"/>
            <display value="Active"/>
          </coding>
        </status>
        <statusDate value="2024-10-17T00:00:00Z"/>
        <containedItemQuantity>
          <value value="1" />
          <system value="http://unitsofmeasure.org"/>
          <code value="dose" />
        </containedItemQuantity>
        <manufacturer>
          <reference value="urn:uuid:82eaaeab-bb28-4082-993c-d55e52ce9284"/>
          <reference value="urn:uuid:dfdcd278-7df6-4100-af64-0e622f532a7c"/>
        </manufacturer>
        <marketingStatus>
          <country>
            <coding>
              <system value="https://spor.ema.europa.eu/v1/lists/100000000002"/>
              <code value="100000000538"/>
              <display value="Taiwan"/>
            </coding>
          </country>
          <status>
            <coding>
              <system
                      value="https://spor.ema.europa.eu/v1/lists/100000072052"/>
              <code value="100000072083"/>
              <display value="Marketed"/>
            </coding>
          </status>
          <dateRange>
            <start value="113-10-08"/>
          </dateRange>
        </marketingStatus>
        <packaging>
          <identifier>
            <system value="https://mcp.fda.gov.tw/"/>
            <value value="9d3d869d-f96d-473b-964b-cc87384ef716"/>
          </identifier>
          <type>
            <coding>
              <system value="http://hl7.org/fhir/medicinal-product-package-type"/>
              <code value="100000073498"/>
              <display value="Box"/>
            </coding>
          </type>
          <quantity value="1"/>
          <material>
            <coding>
              <system value="http://hl7.org/fhir/package-material"/>
              <code value="200000003529"/>
              <display value="Cardboard"/>
            </coding>
           </material>
           <packaging>
          <identifier>
            <system value="https://mcp.fda.gov.tw/"/>
            <value value="965ab24e-6995-4dd7-ac07-d50d6dae4415"/>
          </identifier>
          <type>
            <coding>
              <system value="http://hl7.org/fhir/medicinal-product-package-type"/>
              <code value="100000073563"/>
              <display value="Vial"/>
            </coding>
          </type>
          <quantity value="1"/>
          <material>
            <coding>
              <system value="http://hl7.org/fhir/package-material"/>
              <code value="200000003204"/>
              <display value="Glass type I"/>
            </coding>
           </material>
            <containedItem>
              <item>
                <reference>
                  <reference value="urn:uuid:3432fae4-3240-420b-a922-0c2a965ed032"/>
                </reference>
              </item>
              <amount>
                <value value="1"/>
                <unit value="Vial"/>
                <system value="http://hl7.org/fhir/medicinal-product-package-type"/>
                <code value="100000073563"/>
              </amount>
            </containedItem>
        </packaging>
        <packaging>
          <identifier>
            <system value="https://mcp.fda.gov.tw/"/>
            <value value="30efcd5f-58bf-46da-9fbc-b355b8a4e67e"/>
          </identifier>
          <type>
            <coding>
              <system value="http://hl7.org/fhir/medicinal-product-package-type"/>
              <code value="100000073544"/>
              <display value="Pre-filled syringe"/>
            </coding>
          </type>
          <quantity value="1"/>
          <material>
            <coding>
              <system value="http://hl7.org/fhir/package-material"/>
              <code value="200000003204"/>
              <display value="Glass type I"/>
            </coding>
           </material>
            <containedItem>
              <item>
                <reference>
                  <reference value="urn:uuid:c984b49f-f53d-468f-af0f-6f12ecc678e9"/>
                </reference>
              </item>
              <amount>
                <value value="1"/>
                <unit value="Pre-filled syringe"/>
                <system value="http://hl7.org/fhir/medicinal-product-package-type"/>
                <code value="100000073544"/>
              </amount>
            </containedItem>
        </packaging>
        <packaging>
          <identifier>
            <system value="https://mcp.fda.gov.tw/"/>
            <value value="321e100f-a928-40cd-8441-25487afc52b2"/>
          </identifier>
          <type>
            <coding>
              <system value="http://hl7.org/fhir/medicinal-product-package-type"/>
              <code value="100000073544"/>
              <display value="Vial Adapter"/>
            </coding>
          </type>
          <quantity value="1"/>
          <material>
            <coding>
              <system value="http://hl7.org/fhir/package-material"/>
              <code value="200000003208"/>
              <display value="Plastic"/>
            </coding>
           </material>
           <containedItem>
                <amount>
                <value value="1"/>
                <unit value="Vial Adapter"/>
                <system value="http://hl7.org/fhir/medicinal-product-package-type"/>
                <code value="100000073544"/>
              </amount>
            </containedItem>
        </packaging>
        </packaging>  
      </PackagedProductDefinition>
    </resource>
  </entry>
  

  <entry>
    <fullUrl value="urn:uuid:7449fcf4-ed9e-4752-859d-4dd14a89f1f5"/>
    <resource>
      <PackagedProductDefinition>
        <id value="7449fcf4-ed9e-4752-859d-4dd14a89f1f5"/>
        <meta>
          <profile value="http://hl7.org/fhir/uv/emedicinal-product-info/StructureDefinition/PackagedProductDefinition-uv-epi"/>
        </meta>
        <identifier>
          <use value="official"/>
          <system value="https://mcp.fda.gov.tw/"/>
          <value value="a2b8d999-da6e-4038-952b-d45e57aec99d"/>
        </identifier>
        <name value="ABRYSVO power and solvent for solution for injection"/>
        <type>
          <coding>
            <system value="http://hl7.org/fhir/medicinal-product-type"/>
            <code value="MedicinalProduct"/>
            <display value="Medicinal Product"/>
          </coding>
        </type>
        <packageFor>
          <reference value="urn:uuid:1ea89061-dc21-4e27-a888-30ac92d36d54"/>
        </packageFor>
        <status>
          <coding>
            <system value="http://hl7.org/fhir/publication-status"/>
            <code value="active"/>
            <display value="Active"/>
          </coding>
        </status>
        <statusDate value="2024-10-17T00:00:00Z"/>
        <containedItemQuantity>
          <value value="5" />
          <system value="http://unitsofmeasure.org"/>
          <code value="doses" />
        </containedItemQuantity>
        <manufacturer>
          <reference value="urn:uuid:82eaaeab-bb28-4082-993c-d55e52ce9284"/>
          <reference value="urn:uuid:dfdcd278-7df6-4100-af64-0e622f532a7c"/>
        </manufacturer>
        <marketingStatus>
          <country>
            <coding>
              <system value="https://spor.ema.europa.eu/v1/lists/100000000002"/>
              <code value="100000000538"/>
              <display value="Taiwan"/>
            </coding>
          </country>
          <status>
            <coding>
              <system
                      value="https://spor.ema.europa.eu/v1/lists/100000072052"/>
              <code value="100000072083"/>
              <display value="Marketed"/>
            </coding>
          </status>
          <dateRange>
            <start value="113-10-08"/>
          </dateRange>
        </marketingStatus>
        <packaging>
          <identifier>
            <system value="https://mcp.fda.gov.tw/"/>
            <value value="4f1f5f67-b63e-4672-a9ed-2d56bc7d9fc9"/>
          </identifier>
          <type>
            <coding>
              <system value="http://hl7.org/fhir/medicinal-product-package-type"/>
              <code value="100000143555"/>
              <display value="Box"/>
            </coding>
          </type>
          <quantity value="1"/>
          <material>
            <coding>
              <system value="http://hl7.org/fhir/package-material"/>
              <code value="200000003529"/>
              <display value="Cardboard"/>
            </coding>
           </material>
           <packaging>
          <identifier>
            <system value="https://mcp.fda.gov.tw/"/>
            <value value="f6ab2070-1169-4f44-98aa-f24bc2561259"/>
          </identifier>
          <type>
            <coding>
              <system value="http://hl7.org/fhir/medicinal-product-package-type"/>
              <code value="100000073563"/>
              <display value="Vial"/>
            </coding>
          </type>
          <quantity value="5"/>
          <material>
            <coding>
              <system value="http://hl7.org/fhir/package-material"/>
              <code value="200000003204"/>
              <display value="Glass type I"/>
            </coding>
           </material>
           <containedItem>
              <item>
                <reference>
                  <reference value="urn:uuid:3432fae4-3240-420b-a922-0c2a965ed032"/>
                </reference>
              </item>
              <amount>
                <value value="5"/>
                <unit value="Vial"/>
                <system value="http://hl7.org/fhir/medicinal-product-package-type"/>
                <code value="100000073563"/>
              </amount>
            </containedItem>
        </packaging>
        <packaging>
          <identifier>
            <system value="https://mcp.fda.gov.tw/"/>
            <value value="a82b53b6-1f15-4937-b2c0-8f14395bd5b0"/>
          </identifier>
          <type>
            <coding>
              <system value="http://hl7.org/fhir/medicinal-product-package-type"/>
              <code value="100000073544"/>
              <display value="Pre-filled syringe"/>
            </coding>
          </type>
          <quantity value="5"/>
          <material>
            <coding>
              <system value="http://hl7.org/fhir/package-material"/>
              <code value="200000003204"/>
              <display value="Glass type I"/>
            </coding>
           </material>
           <containedItem>
              <item>
                <reference>
                  <reference value="urn:uuid:c984b49f-f53d-468f-af0f-6f12ecc678e9"/>
                </reference>
              </item>
              <amount>
                <value value="5"/>
                <unit value="Pre-filled syringe"/>
                <system value="http://hl7.org/fhir/medicinal-product-package-type"/>
                <code value="100000073544"/>
              </amount>
            </containedItem>
        </packaging>
        <packaging>
          <identifier>
            <system value="https://mcp.fda.gov.tw/"/>
            <value value="f08158f5-96c2-4ba0-a078-994c4b91437c"/>
          </identifier>
          <type>
            <coding>
              <system value="http://hl7.org/fhir/medicinal-product-package-type"/>
              <code value="100000073544"/>
              <display value="Vial Adapter"/>
            </coding>
          </type>
          <quantity value="5"/>
          <material>
            <coding>
              <system value="http://hl7.org/fhir/package-material"/>
              <code value="200000003208"/>
              <display value="Plastic"/>
            </coding>
           </material>
           <containedItem>
                <amount>
                <value value="5"/>
                <unit value="Vial Adapter"/>
                <system value="http://hl7.org/fhir/medicinal-product-package-type"/>
                <code value="100000073544"/>
              </amount>
            </containedItem>
        </packaging>
        </packaging>
      </PackagedProductDefinition>
    </resource>
  </entry>

  <entry>
    <fullUrl value="urn:uuid:4a415c12-f188-4cab-b9a0-774e435951a3"/>
    <resource>
      <AdministrableProductDefinition>
        <id value="4a415c12-f188-4cab-b9a0-774e435951a3"/>
        <meta>
          <profile value="http://hl7.org/fhir/uv/emedicinal-product-info/StructureDefinition/AdministrableProductDefinition-uv-epi"/>
        </meta>
        <identifier>
          <system value="https://mcp.fda.gov.tw/"/>
          <value value="c3424968-2374-4fb9-aa4e-0f18a27d36d0"/>
        </identifier>
        <status value="active"/>
        <formOf>
          <reference value="urn:uuid:1ea89061-dc21-4e27-a888-30ac92d36d54"/>
        </formOf>
        <administrableDoseForm>
          <coding>
            <system value="https://spor.ema.europa.eu/rmswi/"/>
            <code value="200000016496"/>
            <display value="Solution for injection in pre-filled syringe"/>
          </coding>
        </administrableDoseForm>
        <unitOfPresentation>
          <coding>
            <system value="https://spor.ema.europa.eu/rmswi/"/>
            <code value="200000002150"/>
            <display value="Syringe"/>
          </coding>
        </unitOfPresentation>
        <producedFrom>
          <reference value="urn:uuid:3432fae4-3240-420b-a922-0c2a965ed032"/>
        </producedFrom>
        <producedFrom>
          <reference value="urn:uuid:c984b49f-f53d-468f-af0f-6f12ecc678e9"/>
        </producedFrom>
        <routeOfAdministration>
          <code>
            <coding>
              <system value="https://spor.ema.europa.eu/rmswi/"/>
              <code value="100000073600"/>
              <display value="Intramuscular use"/>
            </coding>
          </code>
        </routeOfAdministration>
      </AdministrableProductDefinition>
    </resource>
  </entry>
  
  <entry>
    <fullUrl value="urn:uuid:3432fae4-3240-420b-a922-0c2a965ed032"/>
    <resource>
      <ManufacturedItemDefinition>
        <id value="3432fae4-3240-420b-a922-0c2a965ed032"/>
        <meta>
          <profile value="http://hl7.org/fhir/uv/emedicinal-product-info/StructureDefinition/ManufacturedItemDefinition-uv-epi"/>
        </meta>
        <identifier>
          <use value="official"/>
          <system value="https://mcp.fda.gov.tw/"/>
          <value value="8d122cf1-5fd1-44e2-8df5-af0cdcc04131"/>
        </identifier>
        <name value="RSV subgroupA,RSV subgroupB 0.06mg,0.06mg Powder"/>
        <status value="active"/>
        <manufacturedDoseForm>
          <coding>
            <system value="https://spor.ema.europa.eu/rmswi"/>
            <code value="100000073866"/>
            <display value="Powder for solution for injection"/>
          </coding>
        </manufacturedDoseForm>
        <unitOfPresentation>
          <coding>
            <system value="http://hl7.org/fhir/unit-of-presentation"/>
            <code value="200000002158"/>
            <display value="Vial"/>
          </coding>
        </unitOfPresentation>
        <manufacturer>
          <reference value="urn:uuid:82eaaeab-bb28-4082-993c-d55e52ce9284"/>
        </manufacturer> 
        <manufacturer>
          <reference value="urn:uuid:dfdcd278-7df6-4100-af64-0e622f532a7c"/>
        </manufacturer>
      </ManufacturedItemDefinition>
    </resource>
  </entry>
  <entry>
    <fullUrl value="urn:uuid:c984b49f-f53d-468f-af0f-6f12ecc678e9"/>
    <resource>
      <ManufacturedItemDefinition>
        <id value="c984b49f-f53d-468f-af0f-6f12ecc678e9"/>
        <meta>
          <profile value="http://hl7.org/fhir/uv/emedicinal-product-info/StructureDefinition/ManufacturedItemDefinition-uv-epi"/>
        </meta>
        <identifier>
          <use value="official"/>
          <system value="https://mcp.fda.gov.tw/"/>
          <value value="3d0bf666-02af-4724-887c-8c5462ae2dda"/>
        </identifier>
        <name value="Water for injections"/>
        <status value="active"/>
        <manufacturedDoseForm>
          <coding>
            <system value="https://spor.ema.europa.eu/rmswi"/>
            <code value="200000010709"/>
            <display value="Solvent for solution for injection"/>
          </coding>
        </manufacturedDoseForm>
        <unitOfPresentation>
          <coding>
            <system value="http://hl7.org/fhir/unit-of-presentation"/>
            <code value="200000002150"/>
            <display value="Syringe"/>
          </coding>
        </unitOfPresentation>
        <manufacturer>
          <reference value="urn:uuid:82eaaeab-bb28-4082-993c-d55e52ce9284"/>
        </manufacturer>
        <manufacturer>
          <reference value="urn:uuid:dfdcd278-7df6-4100-af64-0e622f532a7c"/>
        </manufacturer>
      </ManufacturedItemDefinition>
    </resource>
  </entry>

  <entry>
    <fullUrl value="urn:uuid:95280b77-c88f-488e-b04d-50bc8957d565"/>
    <resource>
      <Ingredient>
        <id value="95280b77-c88f-488e-b04d-50bc8957d565"/>
        <meta>
          <profile value="http://hl7.org/fhir/uv/emedicinal-product-info/StructureDefinition/Ingredient-uv-epi"/>
        </meta>
        <identifier>
          <use value="official"/>
          <system value="https://mcp.fda.gov.tw/"/>
          <value value="68551c77-ca18-4ce9-9bd8-535187cdc2ba"/>
        </identifier>
        <status value="active"/>
        <for>
          <reference value="urn:uuid:3432fae4-3240-420b-a922-0c2a965ed032"/>
        </for>
        <role>
          <coding>
            <system value="http://hl7.org/fhir/ingredient-role"/>
            <code value="100000072072"/>
            <display value="Active"/>
          </coding>
        </role>
        <manufacturer>
        </manufacturer>
        <substance>
          <code>
            <concept>
              <coding>
                <system value="https://gsrs.ncats.nih.gov/ginas/app/beta/"/>
                <code value="5LLJ3ZKP16"/>
                <display value="RESPIRATORY SYNCYTIAL VIRUS SUBGROUP A"/>
              </coding>
            </concept>
          </code>
          <strength>
            <presentationRatio>
              <numerator>
                <value value="60"/>
                <unit value="microgram(s)"/>
                <system
                        value="https://spor.ema.europa.eu/v1/lists/100000110633"/>
                <code value="100000110656"/>
              </numerator>
              <denominator>
                <value value="1"/>
                <unit value="Vial"/>
                <system
                        value="https://spor.ema.europa.eu/v1/lists/200000000014"/>
                <code value="200000002158"/>
              </denominator>
            </presentationRatio>
            <basis>
              <coding>
                <system value="http://terminology.hl7.org/CodeSystem/v3-RoleClass"/>
                <code value="ACTI"/>
              </coding>
              <text value="active ingredient"/>
            </basis>
          </strength>
        </substance>
      </Ingredient>
    </resource>
  </entry>

  <entry>
    <fullUrl value="urn:uuid:ca0f70fd-7271-4c59-9998-498384d43d9a"/>
    <resource>
      <Ingredient>
        <id value="ca0f70fd-7271-4c59-9998-498384d43d9a"/>
        <meta>
          <profile value="http://hl7.org/fhir/uv/emedicinal-product-info/StructureDefinition/Ingredient-uv-epi"/>
        </meta>
        <identifier>
          <use value="official"/>
          <system value="https://mcp.fda.gov.tw/"/>
          <value value="21f01efb-bfb9-4787-b35b-3199cebb5e3e"/>
        </identifier>
        <status value="active"/>
        <for>
          <reference value="urn:uuid:3432fae4-3240-420b-a922-0c2a965ed032"/>
        </for>
        <role>
          <coding>
            <system value="http://hl7.org/fhir/ingredient-role"/>
            <code value="100000072072"/>
            <display value="Active"/>
          </coding>
        </role>
        <substance>
          <code>
            <concept>
              <coding>
                <system value="https://gsrs.ncats.nih.gov/ginas/app/beta/"/>
                <code value="96U226U1LZ"/>
                <display value="RESPIRATORY SYNCYTIAL VIRUS SUBGROUP B"/>
              </coding>
            </concept>
          </code>
          <strength>
              <presentationRatio>
              <numerator>
                <value value="60"/>
                <unit value="microgram(s)"/>
                <system
                        value="https://spor.ema.europa.eu/v1/lists/100000110633"/>
                <code value="100000110656"/>
              </numerator>
              <denominator>
                <value value="1"/>
                <unit value="Vial"/>
                <system
                        value="https://spor.ema.europa.eu/v1/lists/200000000014"/>
                <code value="200000002158"/>
              </denominator>
            </presentationRatio>
            <basis>
              <coding>
                <system value="http://terminology.hl7.org/CodeSystem/v3-RoleClass"/>
                <code value="ACTI"/>
              </coding>
              <text value="active ingredient"/>
            </basis>
          </strength>
        </substance>
      </Ingredient>
    </resource>
  </entry>

  <entry>
    <fullUrl value="urn:uuid:fba6a779-7288-4eb5-881f-d90fdf1f2f57"/>
    <resource>
      <Ingredient>
        <id value="fba6a779-7288-4eb5-881f-d90fdf1f2f57"/>
        <meta>
          <profile value="http://hl7.org/fhir/uv/emedicinal-product-info/StructureDefinition/Ingredient-uv-epi"/>
        </meta>
        <identifier>
          <use value="official"/>
          <system value="https://mcp.fda.gov.tw/"/>
          <value value="c34cc243-5af4-4cc8-be3e-66fd2f414fd9"/>
        </identifier>
        <status value="active"/>
        <for>
        <reference value="urn:uuid:3432fae4-3240-420b-a922-0c2a965ed032"/>
        </for>
        <role>
          <coding>
            <system value="http://hl7.org/fhir/ingredient-role"/>
            <code value="100000072082"/>
            <display value="Excipient"/>
          </coding>
        </role>
        <manufacturer>
        </manufacturer>
        <substance>
          <code>
            <concept>
              <coding>
                <system value="https://gsrs.ncats.nih.gov/ginas/app/beta/"/>
                <code value="023C2WHX2V"/>
                <display value="Trometamol"/>
              </coding>
            </concept>
          </code>
        </substance>
      </Ingredient>
    </resource>
  </entry>

  <entry>
    <fullUrl value="urn:uuid:37b28773-3749-495a-9bf5-50255a45610a"/>
    <resource>
      <Ingredient>
        <id value="37b28773-3749-495a-9bf5-50255a45610a"/>
        <meta>
          <profile value="http://hl7.org/fhir/uv/emedicinal-product-info/StructureDefinition/Ingredient-uv-epi"/>
        </meta>
        <identifier>
          <use value="official"/>
          <system value="https://mcp.fda.gov.tw/"/>
          <value value="f3500b7a-bd01-4180-b89d-dc13444240a6"/>
        </identifier>
        <status value="active"/>
        <for>
          <reference value="urn:uuid:3432fae4-3240-420b-a922-0c2a965ed032"/>
        </for>
        <role>
          <coding>
            <system value="http://hl7.org/fhir/ingredient-role"/>
            <code value="100000072082"/>
            <display value="Excipient"/>
          </coding>
        </role>
        <manufacturer>
        </manufacturer>
        <substance>
          <code>
            <concept>
              <coding>
                <system value="https://gsrs.ncats.nih.gov/ginas/app/beta/"/>
                <code value="383V75M34E"/>
                <display value="Trometamol hydrochloride"/>
              </coding>
            </concept>
          </code>
        </substance>
      </Ingredient>
    </resource>
  </entry>

  <entry>
    <fullUrl value="urn:uuid:f995e8a4-6e3f-4e44-b37c-4bcace3f362f"/>
    <resource>
      <Ingredient>
        <id value="f995e8a4-6e3f-4e44-b37c-4bcace3f362f"/>
        <meta>
          <profile value="http://hl7.org/fhir/uv/emedicinal-product-info/StructureDefinition/Ingredient-uv-epi"/>
        </meta>
        <identifier>
          <use value="official"/>
          <system value="https://mcp.fda.gov.tw/"/>
          <value value="5e0afabb-a083-415c-a71d-c94126e424a9"/>
        </identifier>
        <status value="active"/>
        <for>
          <reference value="urn:uuid:3432fae4-3240-420b-a922-0c2a965ed032"/>
        </for>
        <role>
          <coding>
            <system value="http://hl7.org/fhir/ingredient-role"/>
            <code value="100000072082"/>
            <display value="Excipient"/>
          </coding>
        </role>
        <manufacturer>
        </manufacturer>
        <substance>
          <code>
            <concept>
              <coding>
                <system value="https://gsrs.ncats.nih.gov/ginas/app/beta/"/>
                <code value="C151H8M554"/>
                <display value="Sucrose"/>
              </coding>
            </concept>
          </code>
        </substance>
      </Ingredient>
    </resource>
  </entry>

  <entry>
    <fullUrl value="urn:uuid:9f24de9b-61ac-453e-97e0-c16553c8a859"/>
    <resource>
      <Ingredient>
        <id value="9f24de9b-61ac-453e-97e0-c16553c8a859"/>
        <meta>
          <profile value="http://hl7.org/fhir/uv/emedicinal-product-info/StructureDefinition/Ingredient-uv-epi"/>
        </meta>
        <identifier>
          <use value="official"/>
          <system value="https://mcp.fda.gov.tw/"/>
          <value value="0050299d-6a1b-41ed-9aeb-e69f163834ef"/>
        </identifier>
        <status value="active"/>
        <for>
          <reference value="urn:uuid:3432fae4-3240-420b-a922-0c2a965ed032"/>
        </for>
        <role>
          <coding>
            <system value="http://hl7.org/fhir/ingredient-role"/>
            <code value="100000072082"/>
            <display value="Excipient"/>
          </coding>
        </role>
        <manufacturer>
        </manufacturer>
        <substance>
          <code>
            <concept>
              <coding>
                <system value="https://gsrs.ncats.nih.gov/ginas/app/beta/"/>
                <code value="3OWL53L36A"/>
                <display value="Mannitol"/>
              </coding>
            </concept>
          </code>
        </substance>
      </Ingredient>
    </resource>
  </entry>

  <entry>
    <fullUrl value="urn:uuid:ae05ec15-d5f9-400f-bd3d-9b089baf2ede"/>
    <resource>
      <Ingredient>
        <id value="ae05ec15-d5f9-400f-bd3d-9b089baf2ede"/>
        <meta>
          <profile value="http://hl7.org/fhir/uv/emedicinal-product-info/StructureDefinition/Ingredient-uv-epi"/>
        </meta>
        <identifier>
          <use value="official"/>
          <system value="https://mcp.fda.gov.tw/"/>
          <value value="3d6e9c7e-8a06-43f3-a9c3-62c87cda6d45"/>
        </identifier>
        <status value="active"/>
        <for>
          <reference value="urn:uuid:3432fae4-3240-420b-a922-0c2a965ed032"/>
        </for>
        <role>
          <coding>
            <system value="http://hl7.org/fhir/ingredient-role"/>
            <code value="100000072082"/>
            <display value="Excipient"/>
          </coding>
        </role>
        <manufacturer>
        </manufacturer>
        <substance>
          <code>
            <concept>
              <coding>
                <system value="https://gsrs.ncats.nih.gov/ginas/app/beta/"/>
                <code value="6OZP39ZG8H"/>
                <display value="Polysorbate 80"/>
              </coding>
            </concept>
          </code>
        </substance>
      </Ingredient>
    </resource>
  </entry>

  <entry>
    <fullUrl value="urn:uuid:5480dd58-f4ff-4831-9070-29ee5761f54a"/>
    <resource>
      <Ingredient>
        <id value="5480dd58-f4ff-4831-9070-29ee5761f54a"/>
        <meta>
          <profile value="http://hl7.org/fhir/uv/emedicinal-product-info/StructureDefinition/Ingredient-uv-epi"/>
        </meta>
        <identifier>
          <use value="official"/>
          <system value="https://mcp.fda.gov.tw/"/>
          <value value="24ef2c8e-9d0f-46e1-8a0a-4ed9d97c2bc1"/>
        </identifier>
        <status value="active"/>
        <for>
          <reference value="urn:uuid:3432fae4-3240-420b-a922-0c2a965ed03"/>
        </for>
        <role>
          <coding>
            <system value="http://hl7.org/fhir/ingredient-role"/>
            <code value="100000072082"/>
            <display value="Excipient"/>
          </coding>
        </role>
        <manufacturer>
        </manufacturer>
        <substance>
          <code>
            <concept>
              <coding>
                <system value="https://gsrs.ncats.nih.gov/ginas/app/beta/"/>
                <code value="6OZP39ZG8H"/>
                <display value="Polysorbate 80"/>
              </coding>
            </concept>
          </code>
        </substance>
      </Ingredient>
    </resource>
  </entry>

  <entry>
    <fullUrl value="urn:uuid:a320e9f3-1c69-4827-9e09-959eb060f799"/>
    <resource>
      <Ingredient>
        <id value="a320e9f3-1c69-4827-9e09-959eb060f799"/>
        <meta>
          <profile value="http://hl7.org/fhir/uv/emedicinal-product-info/StructureDefinition/Ingredient-uv-epi"/>
        </meta>
        <identifier>
          <use value="official"/>
          <system value="https://mcp.fda.gov.tw/"/>
          <value value="62a8194b-6674-41e2-a453-42007cee6084"/>
        </identifier>
        <status value="active"/>
        <for>
          <reference value="urn:uuid:3432fae4-3240-420b-a922-0c2a965ed032"/>
        </for>
        <role>
          <coding>
            <system value="http://hl7.org/fhir/ingredient-role"/>
            <code value="100000072082"/>
            <display value="Excipient"/>
          </coding>
        </role>
        <manufacturer>
        </manufacturer>
        <substance>
          <code>
            <concept>
              <coding>
                <system value="https://gsrs.ncats.nih.gov/ginas/app/beta/"/>
                <code value="451W47IQ8X"/>
                <display value="Sodium Chloride"/>
              </coding>
            </concept>
          </code>
        </substance>
      </Ingredient>
    </resource>
  </entry>

  <entry>
    <fullUrl value="urn:uuid:d05504af-7f08-459e-8b40-7ad3344d5140"/>
    <resource>
      <Ingredient>
        <id value="d05504af-7f08-459e-8b40-7ad3344d5140"/>
        <meta>
          <profile value="http://hl7.org/fhir/uv/emedicinal-product-info/StructureDefinition/Ingredient-uv-epi"/>
        </meta>
        <identifier>
          <use value="official"/>
          <system value="https://mcp.fda.gov.tw/"/>
          <value value="25ae6439-f1a2-4b68-bdd0-2098b885fa30"/>
        </identifier>
        <status value="active"/>
        <for>
          <reference value="urn:uuid:3432fae4-3240-420b-a922-0c2a965ed032"/>
        </for>
        <role>
          <coding>
            <system value="http://hl7.org/fhir/ingredient-role"/>
            <code value="100000072082"/>
            <display value="Excipient"/>
          </coding>
        </role>
        <manufacturer>
        </manufacturer>
        <substance>
          <code>
            <concept>
              <coding>
                <system value="https://gsrs.ncats.nih.gov/ginas/app/beta/"/>
                <code value="QTT17582CB"/>
                <display value="Hydrochloric acid"/>
              </coding>
            </concept>
          </code>
        </substance>
      </Ingredient>
    </resource>
  </entry>

  <entry>
    <fullUrl value="urn:uuid:9d9a4607-9728-40f5-9f0f-3f190416a527"/>
    <resource>
      <Ingredient>
        <id value="9d9a4607-9728-40f5-9f0f-3f190416a527"/>
        <meta>
          <profile value="http://hl7.org/fhir/uv/emedicinal-product-info/StructureDefinition/Ingredient-uv-epi"/>
        </meta>
        <identifier>
          <use value="official"/>
          <system value="https://gsrs.ncats.nih.gov/ginas/app/beta/"/>
          <value value="3WJQ0SDW1A"/>
        </identifier>
        <status value="active"/>
        <for>
          <reference value="urn:uuid:c984b49f-f53d-468f-af0f-6f12ecc678e9"/>
        </for>
        <role>
          <coding>
            <system value="http://hl7.org/fhir/ingredient-role"/>
            <code value="100000136066"/>
            <display value="Solvent"/>
          </coding>
        </role>
        <manufacturer>
        </manufacturer>
        <substance>
          <code>
            <concept>
              <coding>
                <system value="https://gsrs.ncats.nih.gov/ginas/app/beta/"/>
                <code value="059QF0KO0R"/>
                <display value="Water for injection"/>
              </coding>
            </concept>
          </code>
        </substance>
      </Ingredient>
    </resource>
  </entry>
  
  <entry>
    <fullUrl value="urn:uuid:157a85b3-bd7f-4274-9365-9b1ad5309f74"/>
    <resource>
      <SubstanceDefinition>
        <id value="157a85b3-bd7f-4274-9365-9b1ad5309f74"/>
        <meta>
          <profile value="http://hl7.org/fhir/uv/emedicinal-product-info/StructureDefinition/SubstanceDefinition-uv-epi"/>
        </meta>
        <identifier>
          <use value="official"/>
          <system value="https://gsrs.ncats.nih.gov/ginas/app/beta"/>
          <value value="5LLJ3ZKP16"/>
        </identifier>
        <version value="1"/>
        <status>
          <coding>
            <system value="http://hl7.org/fhir/publication-status"/>
            <code value="active"/>
          </coding>
        </status>
        <name>
          <name value="HUMAN RESPIRATORY SYNCYTIAL VIRUS SUBGROUP A"/>
          <type>
            <coding>
              <system value="http://hl7.org/fhir/substance-name-type"/>
              <code value="Scientific"/>
            </coding>
            <text value="Scientific"/>
          </type>
        </name>
      </SubstanceDefinition>
    </resource>
  </entry>
  <entry>
    <fullUrl value="urn:uuid:dbc898b3-4890-485f-aff4-f29b78c503aa"/>
    <resource>
      <SubstanceDefinition>
        <id value="dbc898b3-4890-485f-aff4-f29b78c503aa"/>
        <meta>
          <profile value="http://hl7.org/fhir/uv/emedicinal-product-info/StructureDefinition/SubstanceDefinition-uv-epi"/>
        </meta>
        <identifier>
          <use value="official"/>
          <system value="https://gsrs.ncats.nih.gov/ginas/app/beta"/>
          <value value="96U226U1LZ"/>
        </identifier>
        <version value="1"/>
        <status>
          <coding>
            <system value="http://hl7.org/fhir/publication-status"/>
            <code value="active"/>
          </coding>
        </status>
        <name>
          <name value="HUMAN RESPIRATORY SYNCYTIAL VIRUS SUBGROUP B"/>
          <type>
            <coding>
              <system value="http://hl7.org/fhir/substance-name-type"/>
              <code value="Scientific"/>
            </coding>
            <text value="Scientific"/>
          </type>
        </name>
      </SubstanceDefinition>
    </resource>
  </entry>
</Bundle>
