<?xml version="1.0" encoding="UTF-8"?>
<Bundle xmlns="http://hl7.org/fhir">
  <id value="bundle-paxlovidfctablets"/>
  <meta>
    <versionId value="1"/>
    <lastUpdated value="2024-01-31T00:00:00Z"/>
    <profile value="http://hl7.org/fhir/uv/emedicinal-product-info/StructureDefinition/Bundle-uv-epi"/>
  </meta>
  <language value="zh"/>
  <identifier>
    <system value="https://mcp.fda.gov.tw/"/>
    <value value="paxlovid"/>
  </identifier>
  <type value="document"/>
  <timestamp value="2024-01-31T00:00:00"/>
  <entry>
    <fullUrl value="urn:uuid:97739d08-3a4f-4739-9433-2ae56f522dfc"/>
    <resource>
      <Composition>
        <id value="97739d08-3a4f-4739-9433-2ae56f522dfc"/>
        <meta>
          <profile value="http://hl7.org/fhir/uv/emedicinal-product-info/StructureDefinition/Composition-uv-epi"/>
        </meta>
        <language value="zh"/>
        <version value="1"/>
				<date value="2024-01-31T00:00:00"/>
				<status value="final"/>
        <identifier>
          <system value="https://mcp.fda.gov.tw/"/>
          <value value="97739d08-3a4f-4739-9433-2ae56f522dfc"/>
        </identifier>
        <type>
          <coding>
            <system value="2.16.840.1.113883.6.1"/>
            <code value="68498-5"/>
            <display value="PATIENT MEDICATION INFORMATION"/>
          </coding>
        </type>
        <subject>
          <reference value="urn:uuid:cfaeff60-72ff-42e0-bf17-d56db0f2da16"/>
        </subject>
        <author>
          <reference value="urn:uuid:e7fec37a-af43-4b91-9ec3-e7b2c5cb869b"/>
        </author>
        <title value="Paxlovid LLD USPI 202305-2"/>
        <section>
          <title value="PATIENT MEDICATION INFORMATION "/>
          <code>
            <coding>
              <system value="2.16.840.1.113883.6.1"/>
              <code value="68498-5"/>
              <display value="PATIENT MEDICATION INFORMATION"/>
            </coding>
          </code>
          <text>
            <status value="generated"/>
            <div xmlns="http://www.w3.org/1999/xhtml">
              <p style="text-align:center"><b>病人使用須知</b></p>
              <p style="text-align:center"><b>倍拉維150毫克/100毫克膜衣錠</b></p>
              <p style="text-align:center"><b>(nirmatrelvir tablets; ritonavir tablets)</b></p>
              <p style="text-align:center"><b>組合包裝供口服使用</b></p>
              <h3>什麼是我應該知道關於 PAXLOVID 最重要的資訊</h3>
              <p>PAXLOVID 可能會和其他藥物產生交互作用，造成嚴重或危及生命的副作用或死亡。了解哪些藥物不應該與 PAXLOVID 共同使用是非常重要的。 </p>
              <p><b>不該服用PAXLOVID的情況：</b></p>
              <p>•	您正在服用任何下列藥物： </p>
              <head>
                <title>Product Names</title>
            </head>
            <body>
                <table>
                    <tr>
                        <td>o alfuzosin</td>
                        <td>o amiodarone</td>
                        <td>o apalutamide</td>
                    </tr>
                    <tr>
                        <td>o carbamazepine</td>
                        <td>o colchicine</td>
                        <td>o dihydroergotamine</td>
                    </tr>
                    <tr>
                        <td>o dronedarone</td>
                        <td>o eletriptan</td>
                        <td>o eplerenone</td>
                    </tr>
                    <tr>
                        <td>o ergotamine</td>
                        <td>o finerenone</td>
                        <td>o flecainide</td>
                    </tr>
                    <tr>
                        <td>o flibanserin</td>
                        <td>o ivabradine</td>
                        <td>o lomitapide</td>
                    </tr>
                    <tr>
                        <td>o lovastatin</td>
                        <td>o lumacaftor/ivacaftor</td>
                        <td>o lurasidone</td>
                    </tr>
                    <tr>
                        <td>o methylergonovine</td>
                        <td>o midazolam (oral)</td>
                        <td>o naloxegol</td>
                    </tr>
                    <tr>
                        <td>o phenobarbital</td>
                        <td>o phenytoin</td>
                        <td>o pimozide</td>
                    </tr>
                    <tr>
                        <td>o primidone</td>
                        <td>o propafenone</td>
                        <td>o quinidine</td>
                    </tr>
                    <tr>
                        <td>o ranolazine</td>
                        <td>o rifampin</td>
                        <td>o rifapentine</td>
                    </tr>
                    <tr>
                        <td>o St. John’s Wort (hypericum perforatum)</td>
                        <td>o sildenafil (Revatio®) for pulmonary arterial hypertension</td>
                        <td>o silodosin</td>
                    </tr>
                    <tr>
                        <td>o simvastatin</td>
                        <td>o tolvaptan</td>
                        <td>o triazolam</td>
                    </tr>
                    <tr>
                        <td>o ubrogepant</td>
                        <td>o voclosporin</td>
                        <td></td>
                    </tr>
                </table>
            </body>
            <p>如果與 PAXLOVID 一起服用，並不是只有這些藥物可能會導致嚴重副作用。PAXLOVID 可能會增加或減少多種其他藥物的濃度。請務必告訴您的醫療照護提供者您正在使用的所有藥物，這非常重要，因為在 PAXLOVID 療程中，可能需要進行額外的實驗室檢測或變更其他藥物的劑量。您的醫療照護提供者也可能會告訴您有關需要注意的特定症狀，這些可能表示您需要停止或減少某些其他藥物的劑量。</p>
            <p>•	您對 nirmatrelvir、ritonavir或 PAXLOVID 中的任何成分過敏。PAXLOVID 完整成分清單請參見本文件結尾處。過敏反應的徵兆和症狀請參見<b>「PAXLOVID 可能產生的重要副作用有哪些？」。</b></p>
            <h3>PAXLOVID是甚麽藥物？</h3>
            <p>PAXLOVID是一種處方藥，用 於治療12歲以上、具有進展為重症風險因子之輕度至中度新型冠狀病毒疾病(COVID-19) 病人。</p>
            <p>PAXLOVID未被核准用於 COVID-19 的暴露前或暴露後的預防治療。</p>
            <p><b>服用PAXLOVID前，務必告知醫療照護提供者您的所有醫療狀況，包括您是否：</b></p>
            <ul>
              <li>有腎臟問題。您可能需要不同劑量的PAXLOVID。</li>
              <li>有肝臟問題，包括肝炎。</li>
              <li>感染人類免疫缺乏病毒 1 (HIV-1)。PAXLOVID 可能會導致一些 HIV-1 藥物日後無法發揮作用。</li>
              <li>已懷孕或計劃懷孕。目前不清楚 PAXLOVID 是否會傷害您未出生的嬰兒。如果您正在懷孕或發現懷孕，請立刻告知您的醫療照護提供者。</li>
              <li>正在哺乳或計劃哺乳。目前不清楚 PAXLOVID 是否會進入您的母乳。請與您的醫療照護提供者討論在 PAXLOVID 治療期間哺餵您嬰兒的最佳方式。</li>
            </ul>
            <p><b>告知醫療照護提供者所有您服用的藥物，</b>包括處方藥及非處方藥、維生素及草藥類補充劑。</p>
            <ul>
              <li>您的醫療照護提供者可以告訴您 PAXLOVID 與其他藥物一起使用是否安全。</li>
              <li>您可以向醫療照護提供者或藥師索取與PAXLOVID產生相互作用的藥物清單。</li>
              <li>請勿在沒有告訴您的醫療照護提供者的情況下開始服用新的藥物。</li>
            </ul> 
            <p><b>如果您正在服用複方避孕藥（荷爾蒙避孕藥），請告訴您的醫療照護提供者。</b>PAXLOVID 可能會影響您的荷爾蒙避孕藥的作用。具生育力的女性應在 PAXLOVID 治療期間使用另一種有效的替代避孕方式或額外的阻隔避孕法。如果您對可能適合您的避孕方法有任何疑問，請與您的醫療照護提供者討論。</p>
            <h3>我應如何服用PAXLOVID？</h3>
            <ul>
              <li>完全遵照您的醫療照護提供者告訴您的方式服用 PAXLOVID。</li>
              <li><b>PAXLOVID 由 2 種藥物組成：nirmatrelvir 錠劑和 ritonavir 錠劑。每天服用兩種藥物兩次，持續 5 天。</b></li>
              <ul>
                <li>Nirmatrelvir是一種橢圓型、粉紅色的錠劑。</li>
                <li>Ritonavir是一種白色或灰白色錠劑。</li>
              </ul>
              <li><b>如果您患有腎臟疾病，請與您的醫療照護提供者討論。您 可能會需要不一樣的劑量。</b></li>
              <li>除非您準備服用您的劑量，否則請勿打開PAXLOVID錠劑的泡殼包裝。</li>
              <ul>
                <li>在早上或睡前服用第一劑PAXLOVID，取決於您何時取得處方藥物，或者按照醫療照護提供者告訴您的方式。</li>
                <li><b>針對每次劑量，同時服用所有 3 顆錠劑。</b></li>
              </ul>
              <li>錠劑應整粒吞服。不得咀嚼、破壞或壓碎錠劑。</li>
              <li>可隨餐或空腹服用 PAXLOVID。</li>
              <li>即使您感覺好多了，請勿在沒有和您的醫療照護提供者討論的情況下停止服用PAXLOVID。</li>
              <li>如果您在平常服用的 8 小時內漏服一劑 PAXLOVID，一旦您記起來就請立即服用它。如果您漏服一劑超過 8 小時，請跳過漏服的劑量，並在您例行的時間服用下一劑。請勿同時服用 2 劑 PAXLOVID。</li>
              <li>如果您服用太多 PAXLOVID，請立即聯絡您的醫療照護提供者或前往最近的醫院急診室。</li>
              <li>如果您正在服用含 ritonavir 或 cobicistat 的藥物來治療 C 型肝炎或 HIV-1 感染，您應該繼續服用由醫療照護提供者開立給您的藥物。</li>
             </ul>
             <p>如果您感覺沒有改善或 5 天後感覺惡化，請與您的醫療照護提供者討論。</p>
             <h3>PAXLOVID 可能產生的重要副作用有哪些？</h3>
             <p><b>PAXLOVID 可能會造成嚴重副作用，包括:</b></p>
             <p><b>•	過敏反應，包括嚴重的過敏反應（急性過敏），曾發生於 PAXLOVID 治療期間。</b>如果您發生任何下列過敏反應的症狀，請停止服用 PAXLOVID 並立即尋求醫療協助：</p>
             <table border="0">
              <tr>
              </tr>
              <tr>
                  <td>o	皮疹、蕁麻疹、水泡或脫皮</td>
                  <td>o	吞嚥或呼吸困難</td>
              </tr>
              <tr>
                  <td>o	嘴巴、鼻子、喉嚨或生殖器部位出現疼痛性瘡或潰瘍</td>
                  <td>o	喉嚨發緊</td>
              </tr>
              <tr>
                  <td>o	嘴、嘴唇、舌頭或臉部腫脹</td>
                  <td>o	聲音嘶啞</td>
              </tr>
          </table>
          <p><b>•	肝臟問題。</b>若您在使用PAXLOVID進行治療期間出現任何下列與肝臟問題有關的體徵和症狀，請立即告知醫療照護提供者：</p>
          <table border="0">
            <tr>
            </tr>
            <tr>
                <td>o	食慾不振</td>
                <td>o	淺色糞便</td>
            </tr>
            <tr>
                <td>o	皮膚和眼白泛黃 </td>
                <td>o	皮膚搔癢</td>
            </tr>
            <tr>
                <td>o	深色尿液</td>
                <td>o	胃部（腹部）疼痛</td>
            </tr>
        </table>
        <p><b>PAXLOVID的最常見副作用包括：</b>味覺改變和腹瀉。</p>
        <p>其他可能的副作用包括：</p>
        <ul>
          <li>頭痛</li>
          <li>嘔吐</li>
          <li>腹痛</li>
          <li>噁心</li>
          <li>高血壓</li>
          <li>整體感覺不適</li>
        </ul>
        <p>這些並非 PAXLOVID 所有的可能副作用。欲知更多資訊，請詢問您的醫療照護提供者或藥師。</p>
        <h3>我應該如何存放PAXLOVID？</h3>
        <ul>
          <li>在室溫下儲存 PAXLOVID 錠劑，溫度為 25○C以下。</li>
        </ul>
        <p><b>請將PAXLOVID和所有藥物放在兒童接觸不到的地方。</b></p>
        <h3>關於安全有效使用PAXLOVID的一般資訊</h3>
        <p>有時會為了本文件中未列出的其他目的開立處方藥。請勿將PAXLOVID用於未開具處方的病症。請勿將PAXLOVID給其他人服用，即使他們出現相同的症狀，可能會對他們造成傷害。您可以向您的醫療照護提供者或藥師諮詢為醫療專業人員撰寫的有關PAXLOVID的資訊。</p>
        <h3>PAXLOVID的成分有哪些？</h3>
        <p><b>活性成分：</b>nirmatrelvir 和 ritonavir</p>
        <p><b>Nirmatrelvir 非活性成分：</b>colloidal silicon dioxide, croscarmellose sodium, lactose monohydrate, microcrystalline cellulose, and sodium stearyl fumarate。膜衣內含：hydroxy propyl methylcellulose, iron oxide red, polyethylene glycol, and titanium dioxide。</p>
        <p><b>Ritonavir 非活性成分：</b>copovidone, sorbitan laurate, silica colloidal anhydrous, calcium hydrogen phosphate anhydrous and sodium stearyl fumarate。膜衣內含：hypromellose, titanium dioxide, macrogol, hydroxypropyl cellulose, talc, silica colloidal anhydrous and polysorbate 80。</p>
        <p><b>版本: USPI 202305-1</b></p>
      </div>
          </text>
        </section>  
          <section>
            <title value="SPL UNCLASSIFIED SECTION"/>
            <code>
              <coding>
                <system value="2.16.840.1.113883.6.1"/>
                <code value="34066-1"/>
                <display value="OTHER"/>
              </coding>
            </code>
            <text>
              <status value="generated"/>
              <div xmlns="http://www.w3.org/1999/xhtml">
                <h3>其他</h3>
                <p><b>版本: USPI 202305-2</b></p>
                <p>  </p>
                <p>Nirmatrelvir 150 mg Film-Coated Tablets製造廠(一)：Pfizer Manufacturing Deutschland GmbH</p>
                <p>廠址：Betriebsstätte Freiburg, Mooswaldallee 1, D-79090 Freiburg, Germany.</p>
                <p>Nirmatrelvir 150 mg Film-Coated Tablets製造廠(二)：Pfizer Italia S.r.L</p>
                <p>廠址：Localita Marino Del Tronto, 63100, Ascoli Piceno, Italy.</p>
                <p>  </p>
                <p>Ritonavir 100 mg Film-Coated Tablets製造廠：Hetero Labs Ltd., Unit III</p>
                <p>廠址：22-110, Industrial Development Area, Jeedimetla, Hyderabad, Telangana, India, 500055.</p>
                <p>Ritonavir 100 mg Film-Coated Tablets分包裝廠 (一)：Pfizer Manufacturing Deutschland GmbH</p>
                <p>廠址：Betriebsstätte Freiburg,Mooswaldallee 1, D-79090 Freiburg, Germany.</p>
                <p>Ritonavir 100 mg Film-Coated Tablets分包裝廠 (二)：Pfizer Italia S.r.L</p>
                <p>廠址：Localita Marino Del Tronto, 63100, Ascoli Piceno, Italy.</p>
                <p>  </p>
                <p><b>藥    商:</b>輝瑞大藥廠股份有限公司</p>
                <p><b>地    址:</b>台北市信義區松仁路100號42、43樓</p>
              </div>
            </text>
          </section> 
      </Composition>
    </resource>
  </entry>
  <entry>
    <fullUrl value="urn:uuid:e7fec37a-af43-4b91-9ec3-e7b2c5cb869b"/>
    <resource>
      <Organization>
        <id value="e7fec37a-af43-4b91-9ec3-e7b2c5cb869b"/>
        <meta>
          <profile value="http://hl7.org/fhir/uv/emedicinal-product-info/StructureDefinition/Organization-uv-epi"/>
        </meta>
        <identifier>
          <use value="official"/>
          <system value="https://mcp.fda.gov.tw/"/>
          <value value="e7fec37a-af43-4b91-9ec3-e7b2c5cb869b"/>
        </identifier>
        <active value="true"/>
        <type>
          <coding>
            <system value="https://spor.ema.europa.eu/rmswi"/>
            <code value="220000000034"/>
            <display value="Marketing authorisation holder"/>
          </coding>
        </type>
        <name value="Pfizer Pharmaceutical Co., Ltd"/>
        <contact>
          <address>
            <use value="work"/>
            <type value="physical"/>
            <text value="42, 43F., No. 100, Songren Road, Xinyi District, Taipei City, Taiwan"/>
            <line value="42, 43F., No. 100, Songren Road, Xinyi District"/>
            <city value="Taipei City"/>
            <country value="TW"/>
          </address>
        </contact>
      </Organization>
    </resource>
  </entry>
  <entry>
    <fullUrl value="urn:uuid:a773ccac-5988-4a1d-9723-17bd58eb7a36"/>
    <resource>
      <Organization>
        <id value="a773ccac-5988-4a1d-9723-17bd58eb7a36"/>
        <meta>
          <profile value="http://hl7.org/fhir/uv/emedicinal-product-info/StructureDefinition/Organization-uv-epi"/>
        </meta>
        <identifier>
          <use value="official"/>
          <system value="https://mcp.fda.gov.tw/"/>
          <value value="a773ccac-5988-4a1d-9723-17bd58eb7a36"/>
        </identifier>
        <active value="true"/>
        <type>
          <coding>
            <system value="https://spor.ema.europa.eu/rmswi"/>
            <code value="220000000033"/>
            <display value="Manufacturer"/>
          </coding>
        </type>
        <name value="Pfizer Manufacturing Deutschland GmbH"/>
        <contact>
          <address>
            <use value="work"/>
            <type value="physical"/>
            <text value="Mooswaldallee 1, Bruehl, Freiburg Im Breisgau, Baden-Wuerttemberg, 79108, Germany"/>
            <line value="Mooswaldallee 1, Bruehl, Freiburg Im Breisgau, Baden-Wuerttemberg"/>
            <city value="Freiburg Im Breisgau"/>
            <country value="DE"/>
          </address>
        </contact>
      </Organization>
    </resource>
  </entry>
  <entry>
    <fullUrl value="urn:uuid:123f09dd-7fbd-415e-966a-cf2c8ae08cc8"/>
    <resource>
      <Organization>
        <id value="123f09dd-7fbd-415e-966a-cf2c8ae08cc8"/>
        <meta>
          <profile value="http://hl7.org/fhir/uv/emedicinal-product-info/StructureDefinition/Organization-uv-epi"/>
        </meta>
        <identifier>
          <use value="official"/>
          <system value="https://mcp.fda.gov.tw/"/>
          <value value="123f09dd-7fbd-415e-966a-cf2c8ae08cc8"/>
        </identifier>
        <active value="true"/>
        <type>
          <coding>
            <system value="https://spor.ema.europa.eu/rmswi"/>
            <code value="220000000033"/>
            <display value="Manufacturer"/>
          </coding>
        </type>
        <name value="Pfizer Italia S.r.L"/>
        <contact>
          <address>
            <use value="work"/>
            <type value="physical"/>
            <text value="Localita Marino Del Tronto, Ascoli Piceno, AP, 63100, Italy"/>
            <line value="Localita Marino Del Tronto"/>
            <city value="Ascoli Piceno"/>
            <country value="IT"/>
          </address>
        </contact>
      </Organization>
    </resource>
  </entry>
  <entry>
    <fullUrl value="urn:uuid:98978892-7f39-4f51-a7e9-fa2bd11c171d"/>
    <resource>
      <Organization>
        <id value="98978892-7f39-4f51-a7e9-fa2bd11c171d"/>
        <meta>
          <profile value="http://hl7.org/fhir/uv/emedicinal-product-info/StructureDefinition/Organization-uv-epi"/>
        </meta>
        <identifier>
          <use value="official"/>
          <system value="https://mcp.fda.gov.tw/"/>
          <value value="98978892-7f39-4f51-a7e9-fa2bd11c171d"/>
        </identifier>
        <active value="true"/>
        <type>
          <coding>
            <system value="https://spor.ema.europa.eu/rmswi"/>
            <code value="220000000033"/>
            <display value="Manufacturer"/>
          </coding>
        </type>
        <name value="Hetero Labs Ltd., Unit III"/>
        <contact>
          <address>
            <use value="work"/>
            <type value="physical"/>
            <text value="22-110, Industrial Development Area, Jeedimetla, Hyderabad, Telangana, India, 500055."/>
            <line value="22-110, Industrial Development Area"/>
            <city value="Telangana"/>
            <country value="IN"/>
          </address>
        </contact>
      </Organization>
    </resource>
  </entry>
  <entry>
    <fullUrl value="urn:uuid:cfaeff60-72ff-42e0-bf17-d56db0f2da16"/>
    <resource>
      <MedicinalProductDefinition>
        <id value="cfaeff60-72ff-42e0-bf17-d56db0f2da16"/>
        <meta>
          <profile value="http://hl7.org/fhir/uv/emedicinal-product-info/StructureDefinition/MedicinalProductDefinition-uv-epi"/>
        </meta>
        <identifier>
          <system value="https://mcp.fda.gov.tw/"/>
          <value value="cfaeff60-72ff-42e0-bf17-d56db0f2da16"/>
        </identifier>
        <type>
          <coding>
            <system value="http://hl7.org/fhir/medicinal-product-type"/>
            <code value="MedicinalProduct"/>
            <display value="Medicinal Product"/>
          </coding>
        </type>
        <domain>
          <coding>
            <system value="http://hl7.org/fhir/medicinal-product-domain"/>
            <code value="Human"/>
            <display value="Human use"/>
          </coding>
        </domain>
        <status>
          <coding>
            <system value="http://hl7.org/fhir/publication-status"/>
            <code value="active"/>
            <display value="Active"/>
          </coding>
        </status>
        <statusDate value="2024-01-31T00:00:00Z"/>
        <legalStatusOfSupply>
          <coding>
            <system value="http://hl7.org/fhir/legal-status-of-supply"/>
            <code value="100000072084"/>
            <display value="Medicinal product subject to medical prescription"/>
          </coding>
        </legalStatusOfSupply>
        <classification>
					<coding>
						<system value="http://hl7.org/fhir/ValueSet/medicinal-product-classification"/>
						<code value="J05AE30"/>
						<display value="antivirals protease inhibitors"/>
					</coding>
				</classification>
        <route>
					<coding>
						<system value="http://hl7.org/fhir/uv/emedicinal-product-info/ValueSet/routeOfAdministration"/>
						<code value="26643006"/>
						<display value="Oral route"/>
					</coding>
				</route>
        <name>
          <productName value="PAXLOVID 150 mg/100 mg film-coated tablets"/>
          <usage>
            <country>
              <coding>
                <system value="http://hl7.org/fhir/ValueSet/country"/>
                <code value="TW"/>
                <display value="Taiwan"/>
              </coding>
            </country>
            <jurisdiction>
              <coding>
                <system value="http://hl7.org/fhir/ValueSet/jurisdiction"/>
                <code value="TW"/>
                <display value="Taiwan"/>
              </coding>
            </jurisdiction>
            <language>
              <coding>
                <system value="http://hl7.org/fhir/ValueSet/all-languages"/>
                <code value="en"/>
                <display value="English"/>
              </coding>
            </language>
          </usage>
        </name>
      </MedicinalProductDefinition>
    </resource>
  </entry>
  <entry>
    <fullUrl value="urn:uuid:9597af0f-64da-44eb-a05a-b302e2e5eb1d"/>
    <resource>
      <PackagedProductDefinition>
        <id value="9597af0f-64da-44eb-a05a-b302e2e5eb1d"/>
        <meta>
          <profile value="http://hl7.org/fhir/uv/emedicinal-product-info/StructureDefinition/PackagedProductDefinition-uv-epi"/>
        </meta>
        <identifier>
          <use value="official"/>
          <system value="https://mcp.fda.gov.tw/"/>
          <value value="594b9632-affb-4108-88ac-caad7541af00"/>
        </identifier>
        <name value="PAXLOVID 150 mg/100 mg film-coated tablets blister x 30 tablets"/>
        <type>
          <coding>
            <system value="http://hl7.org/fhir/medicinal-product-type"/>
            <code value="MedicinalProduct"/>
            <display value="Medicinal Product"/>
          </coding>
        </type>
        <packageFor>
          <reference value="urn:uuid:cfaeff60-72ff-42e0-bf17-d56db0f2da16"/>
        </packageFor>
        <status>
          <coding>
            <system value="http://hl7.org/fhir/publication-status"/>
            <code value="active"/>
            <display value="Active"/>
          </coding>
        </status>
        <statusDate value="2018-06-23T08:38:00+02:00"/>
        <containedItemQuantity>
          <value value="150/100"/>
          <unit value="mg"/>
        </containedItemQuantity>
        <packaging>
          <identifier>
            <system value="https://mcp.fda.gov.tw/"/>
            <value value="aeae17de-9dd9-4f67-86ad-2c078f60a445"/>
          </identifier>
          <type>
            <coding>
              <system value="http://hl7.org/fhir/medicinal-product-package-type"/>
              <code value="100000073496"/>
              <display value="Blister"/>
            </coding>
          </type>
          <quantity value="30"/>
          <material>
            <coding>
              <system value="http://hl7.org/fhir/package-material"/>
              <code value="200000003210"/>
              <display value="Orientated PolyAmide"/>
            </coding>
            <coding>
              <system value="http://hl7.org/fhir/package-material"/>
              <code value="200000003200"/>
              <display value="Aluminium"/>
            </coding>
            <coding>
              <system value="http://hl7.org/fhir/package-material"/>
              <code value="200000003222"/>
              <display value="PolyVinyl Chloride"/>
            </coding>
          </material>
        </packaging>
      </PackagedProductDefinition>
    </resource>
  </entry>
  <entry>
    <fullUrl value="urn:uuid:4e0f663a-3b69-41cf-a3c0-416206d0deee"/>
    <resource>
      <AdministrableProductDefinition>
        <id value="4e0f663a-3b69-41cf-a3c0-416206d0deee"/>
        <meta>
          <profile value="http://hl7.org/fhir/uv/emedicinal-product-info/StructureDefinition/AdministrableProductDefinition-uv-epi"/>
        </meta>
        <identifier>
          <system value="https://www.who-umc.org/phpid"/>
          <value value="236b14ee-38bc-41ec-801a-b2c229a75e64"/>
        </identifier>
        <status value="active"/>
        <formOf>
          <reference value="urn:uuid:cfaeff60-72ff-42e0-bf17-d56db0f2da16"/>
        </formOf>
        <administrableDoseForm>
          <coding>
            <system value="http://hl7.org/fhir/administrable-dose-form"/>
            <code value="100000073665"/>
            <display value="Film-coated tablet"/>
          </coding>
        </administrableDoseForm>
        <unitOfPresentation>
          <coding>
            <system value="http://hl7.org/fhir/unit-of-presentation"/>
            <code value="200000002152"/>
            <display value="Tablet"/>
          </coding>
        </unitOfPresentation>
        <producedFrom>
          <reference value="urn:uuid:3214f286-b8ec-4ef5-bc8d-0aec39d97468"/>
        </producedFrom>
        <routeOfAdministration>
          <code>
            <coding>
              <system value="http://snomed.info/sct"/>
              <code value="26643006"/>
              <display value="Oral route"/>
            </coding>
          </code>
        </routeOfAdministration>
      </AdministrableProductDefinition>
    </resource>
  </entry>
  <entry>
    <fullUrl value="urn:uuid:391fe0c6-50cc-45df-86ef-e0ec7cf6ab7f"/>
    <resource>
      <AdministrableProductDefinition>
        <id value="391fe0c6-50cc-45df-86ef-e0ec7cf6ab7f"/>
        <meta>
          <profile value="http://hl7.org/fhir/uv/emedicinal-product-info/StructureDefinition/AdministrableProductDefinition-uv-epi"/>
        </meta>
        <identifier>
          <system value="https://www.who-umc.org/phpid"/>
          <value value="10f671c1-cec0-4d00-9dfe-316b76804b6c"/>
        </identifier>
        <status value="active"/>
        <formOf>
          <reference value="urn:uuid:cfaeff60-72ff-42e0-bf17-d56db0f2da16"/>
        </formOf>
        <administrableDoseForm>
          <coding>
            <system value="http://hl7.org/fhir/administrable-dose-form"/>
            <code value="100000073665"/>
            <display value="Film-coated tablet"/>
          </coding>
        </administrableDoseForm>
        <unitOfPresentation>
          <coding>
            <system value="http://hl7.org/fhir/unit-of-presentation"/>
            <code value="200000002152"/>
            <display value="Tablet"/>
          </coding>
        </unitOfPresentation>
        <producedFrom>
          <reference value="urn:uuid:c984b49f-f53d-468f-af0f-6f12ecc678e9"/>
        </producedFrom>
        <routeOfAdministration>
          <code>
            <coding>
              <system value="http://snomed.info/sct"/>
              <code value="26643006"/>
              <display value="Oral route"/>
            </coding>
          </code>
        </routeOfAdministration>
      </AdministrableProductDefinition>
    </resource>
  </entry>
  <entry>
    <fullUrl value="urn:uuid:3214f286-b8ec-4ef5-bc8d-0aec39d97468"/>
    <resource>
      <ManufacturedItemDefinition>
        <id value="3214f286-b8ec-4ef5-bc8d-0aec39d97468"/>
        <meta>
          <profile value="http://hl7.org/fhir/uv/emedicinal-product-info/StructureDefinition/ManufacturedItemDefinition-uv-epi"/>
        </meta>
        <identifier>
          <use value="official"/>
          <system value="https://mcp.fda.gov.tw/"/>
          <value value="473f236d-9d51-47e7-9e27-576be2c266a1"/>
        </identifier>
        <name value="Nirmatrelvir 150 mg Film-Coated Tablets"/>
        <status value="active"/>
        <manufacturedDoseForm>
          <coding>
            <system value="http://hl7.org/fhir/manufactured-dose-form"/>
            <code value="100000073665"/>
            <display value="Film-coated tablet"/>
          </coding>
        </manufacturedDoseForm>
        <unitOfPresentation>
          <coding>
            <system value="http://hl7.org/fhir/unit-of-presentation"/>
            <code value="200000002152"/>
            <display value="Tablet"/>
          </coding>
        </unitOfPresentation>
        <manufacturer>
          <reference value="urn:uuid:a773ccac-5988-4a1d-9723-17bd58eb7a36"/>
        </manufacturer> 
        <manufacturer>
          <reference value="urn:uuid:123f09dd-7fbd-415e-966a-cf2c8ae08cc8"/>
        </manufacturer>
      </ManufacturedItemDefinition>
    </resource>
  </entry>
  <entry>
    <fullUrl value="urn:uuid:c984b49f-f53d-468f-af0f-6f12ecc678e9"/>
    <resource>
      <ManufacturedItemDefinition>
        <id value="c984b49f-f53d-468f-af0f-6f12ecc678e9"/>
        <meta>
          <profile value="http://hl7.org/fhir/uv/emedicinal-product-info/StructureDefinition/ManufacturedItemDefinition-uv-epi"/>
        </meta>
        <identifier>
          <use value="official"/>
          <system value="https://mcp.fda.gov.tw/"/>
          <value value="3ab80f4d-3932-47cd-89c6-c480006fd7cc"/>
        </identifier>
        <name value="Ritonavir 100 mg Film-Coated Tablets"/>
        <status value="active"/>
        <manufacturedDoseForm>
          <coding>
            <system value="http://hl7.org/fhir/manufactured-dose-form"/>
            <code value="100000073665"/>
            <display value="Film-coated tablet"/>
          </coding>
        </manufacturedDoseForm>
        <unitOfPresentation>
          <coding>
            <system value="http://hl7.org/fhir/unit-of-presentation"/>
            <code value="200000002152"/>
            <display value="Tablet"/>
          </coding>
        </unitOfPresentation>
        <manufacturer>
          <reference value="urn:uuid:98978892-7f39-4f51-a7e9-fa2bd11c171d"/>
        </manufacturer>
        <manufacturer>
          <reference value="urn:uuid:a773ccac-5988-4a1d-9723-17bd58eb7a36"/>
        </manufacturer>
        <manufacturer>
          <reference value="urn:uuid:123f09dd-7fbd-415e-966a-cf2c8ae08cc8"/>
        </manufacturer>
      </ManufacturedItemDefinition>
    </resource>
  </entry>
  <entry>
    <fullUrl value="urn:uuid:745c01bc-936e-45ca-9880-57e97608f43e"/>
    <resource>
      <Ingredient>
        <id value="745c01bc-936e-45ca-9880-57e97608f43e"/>
        <meta>
          <profile value="http://hl7.org/fhir/uv/emedicinal-product-info/StructureDefinition/Ingredient-uv-epi"/>
        </meta>
        <identifier>
          <use value="official"/>
          <system value="https://gsrs.ncats.nih.gov/ginas/app/beta/"/>
          <value value="7R9A5P7H32"/>
        </identifier>
        <status value="active"/>
        <for>
          <reference value="urn:uuid:3214f286-b8ec-4ef5-bc8d-0aec39d97468"/>
        </for>
        <role>
          <coding>
            <system value="http://hl7.org/fhir/ingredient-role"/>
            <code value="100000072072"/>
            <display value="Active"/>
          </coding>
        </role>
        <manufacturer>
        </manufacturer>
        <substance>
          <code>
            <concept>
              <coding>
                <system value="https://gsrs.ncats.nih.gov/ginas/app/beta/"/>
                <code value="7R9A5P7H32"/>
                <display value="Nirmatrelvir"/>
              </coding>
            </concept>
          </code>
          <strength>
            <presentationQuantity>
              <value value="150"/>
              <unit value="mg"/>
            </presentationQuantity>
            <basis>
              <coding>
                <system value="http://terminology.hl7.org/CodeSystem/v3-RoleClass"/>
                <code value="ACTI"/>
              </coding>
              <text value="active ingredient"/>
            </basis>
          </strength>
        </substance>
      </Ingredient>
    </resource>
  </entry>
  <entry>
    <fullUrl value="urn:uuid:792d123b-b476-4846-8c37-257cb02015f8"/>
    <resource>
      <Ingredient>
        <id value="792d123b-b476-4846-8c37-257cb02015f8"/>
        <meta>
          <profile value="http://hl7.org/fhir/uv/emedicinal-product-info/StructureDefinition/Ingredient-uv-epi"/>
        </meta>
        <identifier>
          <use value="official"/>
          <system value="https://gsrs.ncats.nih.gov/ginas/app/beta/"/>
          <value value="O3J8G9O825"/>
        </identifier>
        <status value="active"/>
        <for>
          <reference value="urn:uuid:c984b49f-f53d-468f-af0f-6f12ecc678e9"/>
        </for>
        <role>
          <coding>
            <system value="http://hl7.org/fhir/ingredient-role"/>
            <code value="100000072072"/>
            <display value="Active"/>
          </coding>
        </role>
        <substance>
          <code>
            <concept>
              <coding>
                <system value="https://gsrs.ncats.nih.gov/ginas/app/beta/"/>
                <code value="O3J8G9O825"/>
                <display value="Ritonavir"/>
              </coding>
            </concept>
          </code>
          <strength>
            <presentationQuantity>
              <value value="100"/>
              <unit value="mg"/>
            </presentationQuantity>
            <basis>
              <coding>
                <system value="http://terminology.hl7.org/CodeSystem/v3-RoleClass"/>
                <code value="ACTI"/>
              </coding>
              <text value="active ingredient"/>
            </basis>
          </strength>
        </substance>
      </Ingredient>
    </resource>
  </entry>
  <entry>
    <fullUrl value="urn:uuid:09c13040-8fd5-4818-972d-f01d4ee169b6"/>
    <resource>
      <Ingredient>
        <id value="09c13040-8fd5-4818-972d-f01d4ee169b6"/>
        <meta>
          <profile value="http://hl7.org/fhir/uv/emedicinal-product-info/StructureDefinition/Ingredient-uv-epi"/>
        </meta>
        <identifier>
          <use value="official"/>
          <system value="https://gsrs.ncats.nih.gov/ginas/app/beta/"/>
          <value value="ETJ7Z6XBU4"/>
        </identifier>
        <status value="active"/>
        <for>
        <reference value="urn:uuid:3214f286-b8ec-4ef5-bc8d-0aec39d97468"/>
        </for>
        <role>
          <coding>
            <system value="http://hl7.org/fhir/ingredient-role"/>
            <code value="100000072082"/>
            <display value="Excipient"/>
          </coding>
        </role>
        <manufacturer>
        </manufacturer>
        <substance>
          <code>
            <concept>
              <coding>
                <system value="https://gsrs.ncats.nih.gov/ginas/app/beta/"/>
                <code value="ETJ7Z6XBU4"/>
                <display value="Silicon dioxide, colloidal"/>
              </coding>
            </concept>
          </code>
        </substance>
      </Ingredient>
    </resource>
  </entry>
  <entry>
    <fullUrl value="urn:uuid:80c1871d-955b-452c-b486-1c008a49f94e"/>
    <resource>
      <Ingredient>
        <id value="80c1871d-955b-452c-b486-1c008a49f94e"/>
        <meta>
          <profile value="http://hl7.org/fhir/uv/emedicinal-product-info/StructureDefinition/Ingredient-uv-epi"/>
        </meta>
        <identifier>
          <use value="official"/>
          <system value="https://gsrs.ncats.nih.gov/ginas/app/beta/"/>
          <value value="M28OL1HH48"/>
        </identifier>
        <status value="active"/>
        <for>
          <reference value="urn:uuid:3214f286-b8ec-4ef5-bc8d-0aec39d97468"/>
        </for>
        <role>
          <coding>
            <system value="http://hl7.org/fhir/ingredient-role"/>
            <code value="100000072082"/>
            <display value="Excipient"/>
          </coding>
        </role>
        <manufacturer>
        </manufacturer>
        <substance>
          <code>
            <concept>
              <coding>
                <system value="https://gsrs.ncats.nih.gov/ginas/app/beta/"/>
                <code value="M28OL1HH48"/>
                <display value="Croscarmellose sodium"/>
              </coding>
            </concept>
          </code>
        </substance>
      </Ingredient>
    </resource>
  </entry>
  <entry>
    <fullUrl value="urn:uuid:87772b11-f10f-4000-bcc5-6331da1317d9"/>
    <resource>
      <Ingredient>
        <id value="87772b11-f10f-4000-bcc5-6331da1317d9"/>
        <meta>
          <profile value="http://hl7.org/fhir/uv/emedicinal-product-info/StructureDefinition/Ingredient-uv-epi"/>
        </meta>
        <identifier>
          <use value="official"/>
          <system value="https://gsrs.ncats.nih.gov/ginas/app/beta/"/>
          <value value="EWQ57Q8I5X"/>
        </identifier>
        <status value="active"/>
        <for>
          <reference value="urn:uuid:3214f286-b8ec-4ef5-bc8d-0aec39d97468"/>
        </for>
        <role>
          <coding>
            <system value="http://hl7.org/fhir/ingredient-role"/>
            <code value="100000072082"/>
            <display value="Excipient"/>
          </coding>
        </role>
        <manufacturer>
        </manufacturer>
        <substance>
          <code>
            <concept>
              <coding>
                <system value="https://gsrs.ncats.nih.gov/ginas/app/beta/"/>
                <code value="EWQ57Q8I5X"/>
                <display value="Lactose monohydrate"/>
              </coding>
            </concept>
          </code>
        </substance>
      </Ingredient>
    </resource>
  </entry>
  <entry>
    <fullUrl value="urn:uuid:a70e0d77-7023-4f0a-8543-29b88b79e3fb"/>
    <resource>
      <Ingredient>
        <id value="a70e0d77-7023-4f0a-8543-29b88b79e3fb"/>
        <meta>
          <profile value="http://hl7.org/fhir/uv/emedicinal-product-info/StructureDefinition/Ingredient-uv-epi"/>
        </meta>
        <identifier>
          <use value="official"/>
          <system value="https://gsrs.ncats.nih.gov/ginas/app/beta/"/>
          <value value="OP1R32D61U"/>
        </identifier>
        <status value="active"/>
        <for>
          <reference value="urn:uuid:3214f286-b8ec-4ef5-bc8d-0aec39d97468"/>
        </for>
        <role>
          <coding>
            <system value="http://hl7.org/fhir/ingredient-role"/>
            <code value="100000072082"/>
            <display value="Excipient"/>
          </coding>
        </role>
        <manufacturer>
        </manufacturer>
        <substance>
          <code>
            <concept>
              <coding>
                <system value="https://gsrs.ncats.nih.gov/ginas/app/beta/"/>
                <code value="OP1R32D61U"/>
                <display value="Microcrystalline cellulose"/>
              </coding>
            </concept>
          </code>
        </substance>
      </Ingredient>
    </resource>
  </entry>
  <entry>
    <fullUrl value="urn:uuid:d0ec45e8-1b9a-4ffb-af8c-a3cbf40b7cbd"/>
    <resource>
      <Ingredient>
        <id value="d0ec45e8-1b9a-4ffb-af8c-a3cbf40b7cbd"/>
        <meta>
          <profile value="http://hl7.org/fhir/uv/emedicinal-product-info/StructureDefinition/Ingredient-uv-epi"/>
        </meta>
        <identifier>
          <use value="official"/>
          <system value="https://gsrs.ncats.nih.gov/ginas/app/beta/"/>
          <value value="7CV7WJK4UI"/>
        </identifier>
        <status value="active"/>
        <for>
          <reference value="urn:uuid:3214f286-b8ec-4ef5-bc8d-0aec39d97468"/>
        </for>
        <role>
          <coding>
            <system value="http://hl7.org/fhir/ingredient-role"/>
            <code value="100000072082"/>
            <display value="Excipient"/>
          </coding>
        </role>
        <manufacturer>
        </manufacturer>
        <substance>
          <code>
            <concept>
              <coding>
                <system value="https://gsrs.ncats.nih.gov/ginas/app/beta/"/>
                <code value="7CV7WJK4UI"/>
                <display value="Sodium stearyl fumarate"/>
              </coding>
            </concept>
          </code>
        </substance>
      </Ingredient>
    </resource>
  </entry>
  <entry>
    <fullUrl value="urn:uuid:5a2530c8-4599-4fb3-b0e2-df8b29b03bba"/>
    <resource>
      <Ingredient>
        <id value="5a2530c8-4599-4fb3-b0e2-df8b29b03bba"/>
        <meta>
          <profile value="http://hl7.org/fhir/uv/emedicinal-product-info/StructureDefinition/Ingredient-uv-epi"/>
        </meta>
        <identifier>
          <use value="official"/>
          <system value="https://gsrs.ncats.nih.gov/ginas/app/beta/"/>
          <value value="3NXW29V3WO"/>
        </identifier>
        <status value="active"/>
        <for>
          <reference value="urn:uuid:3214f286-b8ec-4ef5-bc8d-0aec39d97468"/>
        </for>
        <role>
          <coding>
            <system value="http://hl7.org/fhir/ingredient-role"/>
            <code value="100000072082"/>
            <display value="Excipient"/>
          </coding>
        </role>
        <manufacturer>
        </manufacturer>
        <substance>
          <code>
            <concept>
              <coding>
                <system value="https://gsrs.ncats.nih.gov/ginas/app/beta/"/>
                <code value="3NXW29V3WO"/>
                <display value="Hydroxypropyl methylcellulose"/>
              </coding>
            </concept>
          </code>
        </substance>
      </Ingredient>
    </resource>
  </entry>
  <entry>
    <fullUrl value="urn:uuid:b717362f-5bdc-4618-8e40-81171e75cd2d"/>
    <resource>
      <Ingredient>
        <id value="b717362f-5bdc-4618-8e40-81171e75cd2d"/>
        <meta>
          <profile value="http://hl7.org/fhir/uv/emedicinal-product-info/StructureDefinition/Ingredient-uv-epi"/>
        </meta>
        <identifier>
          <use value="official"/>
          <system value="https://gsrs.ncats.nih.gov/ginas/app/beta/"/>
          <value value="1K09F3G675"/>
        </identifier>
        <status value="active"/>
        <for>
          <reference value="urn:uuid:3214f286-b8ec-4ef5-bc8d-0aec39d97468"/>
        </for>
        <role>
          <coding>
            <system value="http://hl7.org/fhir/ingredient-role"/>
            <code value="100000072082"/>
            <display value="Excipient"/>
          </coding>
        </role>
        <manufacturer>
        </manufacturer>
        <substance>
          <code>
            <concept>
              <coding>
                <system value="https://gsrs.ncats.nih.gov/ginas/app/beta/"/>
                <code value="1K09F3G675"/>
                <display value="Iron oxide red"/>
              </coding>
            </concept>
          </code>
        </substance>
      </Ingredient>
    </resource>
  </entry>
  <entry>
    <fullUrl value="urn:uuid:9d9a4607-9728-40f5-9f0f-3f190416a527"/>
    <resource>
      <Ingredient>
        <id value="9d9a4607-9728-40f5-9f0f-3f190416a527"/>
        <meta>
          <profile value="http://hl7.org/fhir/uv/emedicinal-product-info/StructureDefinition/Ingredient-uv-epi"/>
        </meta>
        <identifier>
          <use value="official"/>
          <system value="https://gsrs.ncats.nih.gov/ginas/app/beta/"/>
          <value value="3WJQ0SDW1A"/>
        </identifier>
        <status value="active"/>
        <for>
          <reference value="urn:uuid:3214f286-b8ec-4ef5-bc8d-0aec39d97468"/>
        </for>
        <role>
          <coding>
            <system value="http://hl7.org/fhir/ingredient-role"/>
            <code value="100000072082"/>
            <display value="Excipient"/>
          </coding>
        </role>
        <manufacturer>
        </manufacturer>
        <substance>
          <code>
            <concept>
              <coding>
                <system value="https://gsrs.ncats.nih.gov/ginas/app/beta/"/>
                <code value="3WJQ0SDW1A"/>
                <display value="Polyethylene glycol"/>
              </coding>
            </concept>
          </code>
        </substance>
      </Ingredient>
    </resource>
  </entry>
  <entry>
    <fullUrl value="urn:uuid:3fc6c9e0-da0f-44d6-93b7-16590597f7b6"/>
    <resource>
      <Ingredient>
        <id value="3fc6c9e0-da0f-44d6-93b7-16590597f7b6"/>
        <meta>
          <profile value="http://hl7.org/fhir/uv/emedicinal-product-info/StructureDefinition/Ingredient-uv-epi"/>
        </meta>
        <identifier>
          <use value="official"/>
          <system value="https://gsrs.ncats.nih.gov/ginas/app/beta/"/>
          <value value="15FIX9V2JP"/>
        </identifier>
        <status value="active"/>
        <for>
        <reference value="urn:uuid:3214f286-b8ec-4ef5-bc8d-0aec39d97468"/>
        </for>
        <role>
          <coding>
            <system value="http://hl7.org/fhir/ingredient-role"/>
            <code value="100000072082"/>
            <display value="Excipient"/>
          </coding>
        </role>
        <manufacturer>
        </manufacturer>
        <substance>
          <code>
            <concept>
              <coding>
                <system value="https://gsrs.ncats.nih.gov/ginas/app/beta/"/>
                <code value="15FIX9V2JP"/>
                <display value="Titanium Dioxide"/>
              </coding>
            </concept>
          </code>
        </substance>
      </Ingredient>
    </resource>
  </entry>
  <entry>
    <fullUrl value="urn:uuid:dacf1690-984b-4b75-b39c-9ab42f0ed662"/>
    <resource>
      <Ingredient>
        <id value="dacf1690-984b-4b75-b39c-9ab42f0ed662"/>
        <meta>
          <profile value="http://hl7.org/fhir/uv/emedicinal-product-info/StructureDefinition/Ingredient-uv-epi"/>
        </meta>
        <identifier>
          <use value="official"/>
          <system value="https://gsrs.ncats.nih.gov/ginas/app/beta/"/>
          <value value="D9C330MD8B"/>
        </identifier>
        <status value="active"/>
        <for>
        <reference value="urn:uuid:c984b49f-f53d-468f-af0f-6f12ecc678e9"/>
        </for>
        <role>
          <coding>
            <system value="http://hl7.org/fhir/ingredient-role"/>
            <code value="100000072082"/>
            <display value="Excipient"/>
          </coding>
        </role>
        <manufacturer>
        </manufacturer>
        <substance>
          <code>
            <concept>
              <coding>
                <system value="https://gsrs.ncats.nih.gov/ginas/app/beta/"/>
                <code value="D9C330MD8B"/>
                <display value="Copovidone"/>
              </coding>
            </concept>
          </code>
        </substance>
      </Ingredient>
    </resource>
  </entry>
  <entry>
    <fullUrl value="urn:uuid:3fc6c9e0-da0f-44d6-93b7-16590597f7b6"/>
    <resource>
      <Ingredient>
        <id value="3fc6c9e0-da0f-44d6-93b7-16590597f7b6"/>
        <meta>
          <profile value="http://hl7.org/fhir/uv/emedicinal-product-info/StructureDefinition/Ingredient-uv-epi"/>
        </meta>
        <identifier>
          <use value="official"/>
          <system value="https://gsrs.ncats.nih.gov/ginas/app/beta/"/>
          <value value="6W9PS8B71J"/>
        </identifier>
        <status value="active"/>
        <for>
        <reference value="urn:uuid:c984b49f-f53d-468f-af0f-6f12ecc678e9"/>
        </for>
        <role>
          <coding>
            <system value="http://hl7.org/fhir/ingredient-role"/>
            <code value="100000072082"/>
            <display value="Excipient"/>
          </coding>
        </role>
        <manufacturer>
        </manufacturer>
        <substance>
          <code>
            <concept>
              <coding>
                <system value="https://gsrs.ncats.nih.gov/ginas/app/beta/"/>
                <code value="6W9PS8B71J"/>
                <display value="Sorbitan laurate"/>
              </coding>
            </concept>
          </code>
        </substance>
      </Ingredient>
    </resource>
  </entry>
  <entry>
    <fullUrl value="urn:uuid:73445cfe-fcfc-4e6a-9c4a-8ef53cfc5095"/>
    <resource>
      <Ingredient>
        <id value="73445cfe-fcfc-4e6a-9c4a-8ef53cfc5095"/>
        <meta>
          <profile value="http://hl7.org/fhir/uv/emedicinal-product-info/StructureDefinition/Ingredient-uv-epi"/>
        </meta>
        <identifier>
          <use value="official"/>
          <system value="https://gsrs.ncats.nih.gov/ginas/app/beta/"/>
          <value value="ETJ7Z6XBU4"/>
        </identifier>
        <status value="active"/>
        <for>
        <reference value="urn:uuid:c984b49f-f53d-468f-af0f-6f12ecc678e9"/>
        </for>
        <role>
          <coding>
            <system value="http://hl7.org/fhir/ingredient-role"/>
            <code value="100000072082"/>
            <display value="Excipient"/>
          </coding>
        </role>
        <manufacturer>
        </manufacturer>
        <substance>
          <code>
            <concept>
              <coding>
                <system value="https://gsrs.ncats.nih.gov/ginas/app/beta/"/>
                <code value="ETJ7Z6XBU4"/>
                <display value="Silica colloidal anhydrous"/>
              </coding>
            </concept>
          </code>
        </substance>
      </Ingredient>
    </resource>
  </entry>
  <entry>
    <fullUrl value="urn:uuid:96ab37c6-19e1-42a1-ba44-b547e736cbad"/>
    <resource>
      <Ingredient>
        <id value="96ab37c6-19e1-42a1-ba44-b547e736cbad"/>
        <meta>
          <profile value="http://hl7.org/fhir/uv/emedicinal-product-info/StructureDefinition/Ingredient-uv-epi"/>
        </meta>
        <identifier>
          <use value="official"/>
          <system value="https://gsrs.ncats.nih.gov/ginas/app/beta/"/>
          <value value="L11K75P92J"/>
        </identifier>
        <status value="active"/>
        <for>
        <reference value="urn:uuid:c984b49f-f53d-468f-af0f-6f12ecc678e9"/>
        </for>
        <role>
          <coding>
            <system value="http://hl7.org/fhir/ingredient-role"/>
            <code value="100000072082"/>
            <display value="Excipient"/>
          </coding>
        </role>
        <manufacturer>
        </manufacturer>
        <substance>
          <code>
            <concept>
              <coding>
                <system value="https://gsrs.ncats.nih.gov/ginas/app/beta/"/>
                <code value="L11K75P92J"/>
                <display value="Calcium hydrogen phosphate anhydrous"/>
              </coding>
            </concept>
          </code>
        </substance>
      </Ingredient>
    </resource>
  </entry>
  <entry>
    <fullUrl value="urn:uuid:581adab7-846f-4555-93ba-1d5be1bf740d"/>
    <resource>
      <Ingredient>
        <id value="581adab7-846f-4555-93ba-1d5be1bf740d"/>
        <meta>
          <profile value="http://hl7.org/fhir/uv/emedicinal-product-info/StructureDefinition/Ingredient-uv-epi"/>
        </meta>
        <identifier>
          <use value="official"/>
          <system value="https://gsrs.ncats.nih.gov/ginas/app/beta/"/>
          <value value="7CV7WJK4UI"/>
        </identifier>
        <status value="active"/>
        <for>
          <reference value="urn:uuid:c984b49f-f53d-468f-af0f-6f12ecc678e9"/>
        </for>
        <role>
          <coding>
            <system value="http://hl7.org/fhir/ingredient-role"/>
            <code value="100000072082"/>
            <display value="Excipient"/>
          </coding>
        </role>
        <manufacturer>
        </manufacturer>
        <substance>
          <code>
            <concept>
              <coding>
                <system value="https://gsrs.ncats.nih.gov/ginas/app/beta/"/>
                <code value="7CV7WJK4UI"/>
                <display value="Sodium stearyl fumarate"/>
              </coding>
            </concept>
          </code>
        </substance>
      </Ingredient>
    </resource>
  </entry>
  <entry>
    <fullUrl value="urn:uuid:2aeb8dda-b7f6-4156-9328-7cbcbd6d6328"/>
    <resource>
      <Ingredient>
        <id value="2aeb8dda-b7f6-4156-9328-7cbcbd6d6328"/>
        <meta>
          <profile value="http://hl7.org/fhir/uv/emedicinal-product-info/StructureDefinition/Ingredient-uv-epi"/>
        </meta>
        <identifier>
          <use value="official"/>
          <system value="https://gsrs.ncats.nih.gov/ginas/app/beta/"/>
          <value value="3NXW29V3WO"/>
        </identifier>
        <status value="active"/>
        <for>
        <reference value="urn:uuid:c984b49f-f53d-468f-af0f-6f12ecc678e9"/>
        </for>
        <role>
          <coding>
            <system value="http://hl7.org/fhir/ingredient-role"/>
            <code value="100000072082"/>
            <display value="Excipient"/>
          </coding>
        </role>
        <manufacturer>
        </manufacturer>
        <substance>
          <code>
            <concept>
              <coding>
                <system value="https://gsrs.ncats.nih.gov/ginas/app/beta/"/>
                <code value="3NXW29V3WO"/>
                <display value="Hypromellose"/>
              </coding>
            </concept>
          </code>
        </substance>
      </Ingredient>
    </resource>
  </entry>
  <entry>
    <fullUrl value="urn:uuid:adb44c23-3430-4563-80dc-7c09163300f2"/>
    <resource>
      <Ingredient>
        <id value="adb44c23-3430-4563-80dc-7c09163300f2"/>
        <meta>
          <profile value="http://hl7.org/fhir/uv/emedicinal-product-info/StructureDefinition/Ingredient-uv-epi"/>
        </meta>
        <identifier>
          <use value="official"/>
          <system value="https://gsrs.ncats.nih.gov/ginas/app/beta/"/>
          <value value="15FIX9V2JP"/>
        </identifier>
        <status value="active"/>
        <for>
        <reference value="urn:uuid:c984b49f-f53d-468f-af0f-6f12ecc678e9"/>
        </for>
        <role>
          <coding>
            <system value="http://hl7.org/fhir/ingredient-role"/>
            <code value="100000072082"/>
            <display value="Excipient"/>
          </coding>
        </role>
        <manufacturer>
        </manufacturer>
        <substance>
          <code>
            <concept>
              <coding>
                <system value="https://gsrs.ncats.nih.gov/ginas/app/beta/"/>
                <code value="15FIX9V2JP"/>
                <display value="Titanium Dioxide"/>
              </coding>
            </concept>
          </code>
        </substance>
      </Ingredient>
    </resource>
  </entry>
  <entry>
    <fullUrl value="urn:uuid:e7af6f11-5f61-47c6-ba60-6130776803b9"/>
    <resource>
      <Ingredient>
        <id value="e7af6f11-5f61-47c6-ba60-6130776803b9"/>
        <meta>
          <profile value="http://hl7.org/fhir/uv/emedicinal-product-info/StructureDefinition/Ingredient-uv-epi"/>
        </meta>
        <identifier>
          <use value="official"/>
          <system value="https://gsrs.ncats.nih.gov/ginas/app/beta/"/>
          <value value="3WJQ0SDW1A"/>
        </identifier>
        <status value="active"/>
        <for>
        <reference value="urn:uuid:c984b49f-f53d-468f-af0f-6f12ecc678e9"/>
        </for>
        <role>
          <coding>
            <system value="http://hl7.org/fhir/ingredient-role"/>
            <code value="100000072082"/>
            <display value="Excipient"/>
          </coding>
        </role>
        <manufacturer>
        </manufacturer>
        <substance>
          <code>
            <concept>
              <coding>
                <system value="https://gsrs.ncats.nih.gov/ginas/app/beta/"/>
                <code value="3WJQ0SDW1A"/>
                <display value="Macrogol"/>
              </coding>
            </concept>
          </code>
        </substance>
      </Ingredient>
    </resource>
  </entry>
  <entry>
    <fullUrl value="urn:uuid:3e1df278-c76a-4c00-991a-80e399a6ea20"/>
    <resource>
      <Ingredient>
        <id value="3e1df278-c76a-4c00-991a-80e399a6ea20"/>
        <meta>
          <profile value="http://hl7.org/fhir/uv/emedicinal-product-info/StructureDefinition/Ingredient-uv-epi"/>
        </meta>
        <identifier>
          <use value="official"/>
          <system value="https://gsrs.ncats.nih.gov/ginas/app/beta/"/>
          <value value="9XZ8H6N6OH"/>
        </identifier>
        <status value="active"/>
        <for>
        <reference value="urn:uuid:c984b49f-f53d-468f-af0f-6f12ecc678e9"/>
        </for>
        <role>
          <coding>
            <system value="http://hl7.org/fhir/ingredient-role"/>
            <code value="100000072082"/>
            <display value="Excipient"/>
          </coding>
        </role>
        <manufacturer>
        </manufacturer>
        <substance>
          <code>
            <concept>
              <coding>
                <system value="https://gsrs.ncats.nih.gov/ginas/app/beta/"/>
                <code value="9XZ8H6N6OH"/>
                <display value="Hydroxypropyl cellulose"/>
              </coding>
            </concept>
          </code>
        </substance>
      </Ingredient>
    </resource>
  </entry>
  <entry>
    <fullUrl value="urn:uuid:cc341cf7-e010-4d71-bda5-06cc7f09974f"/>
    <resource>
      <Ingredient>
        <id value="cc341cf7-e010-4d71-bda5-06cc7f09974f"/>
        <meta>
          <profile value="http://hl7.org/fhir/uv/emedicinal-product-info/StructureDefinition/Ingredient-uv-epi"/>
        </meta>
        <identifier>
          <use value="official"/>
          <system value="https://gsrs.ncats.nih.gov/ginas/app/beta/"/>
          <value value="7SEV7J4R1U"/>
        </identifier>
        <status value="active"/>
        <for>
        <reference value="urn:uuid:c984b49f-f53d-468f-af0f-6f12ecc678e9"/>
        </for>
        <role>
          <coding>
            <system value="http://hl7.org/fhir/ingredient-role"/>
            <code value="100000072082"/>
            <display value="Excipient"/>
          </coding>
        </role>
        <manufacturer>
        </manufacturer>
        <substance>
          <code>
            <concept>
              <coding>
                <system value="https://gsrs.ncats.nih.gov/ginas/app/beta/"/>
                <code value="7SEV7J4R1U"/>
                <display value="Talc"/>
              </coding>
            </concept>
          </code>
        </substance>
      </Ingredient>
    </resource>
  </entry>
  <entry>
    <fullUrl value="urn:uuid:92427491-7091-4952-9f73-e2d77ee3aaa2"/>
    <resource>
      <Ingredient>
        <id value="92427491-7091-4952-9f73-e2d77ee3aaa2"/>
        <meta>
          <profile value="http://hl7.org/fhir/uv/emedicinal-product-info/StructureDefinition/Ingredient-uv-epi"/>
        </meta>
        <identifier>
          <use value="official"/>
          <system value="https://gsrs.ncats.nih.gov/ginas/app/beta/"/>
          <value value="ETJ7Z6XBU4"/>
        </identifier>
        <status value="active"/>
        <for>
        <reference value="urn:uuid:c984b49f-f53d-468f-af0f-6f12ecc678e9"/>
        </for>
        <role>
          <coding>
            <system value="http://hl7.org/fhir/ingredient-role"/>
            <code value="100000072082"/>
            <display value="Excipient"/>
          </coding>
        </role>
        <manufacturer>
        </manufacturer>
        <substance>
          <code>
            <concept>
              <coding>
                <system value="https://gsrs.ncats.nih.gov/ginas/app/beta/"/>
                <code value="ETJ7Z6XBU4"/>
                <display value="Silica colloidal anhydrous"/>
              </coding>
            </concept>
          </code>
        </substance>
      </Ingredient>
    </resource>
  </entry>
  <entry>
    <fullUrl value="urn:uuid:cc341cf7-e010-4d71-bda5-06cc7f09974f"/>
    <resource>
      <Ingredient>
        <id value="cc341cf7-e010-4d71-bda5-06cc7f09974f"/>
        <meta>
          <profile value="http://hl7.org/fhir/uv/emedicinal-product-info/StructureDefinition/Ingredient-uv-epi"/>
        </meta>
        <identifier>
          <use value="official"/>
          <system value="https://gsrs.ncats.nih.gov/ginas/app/beta/"/>
          <value value="6OZP39ZG8H"/>
        </identifier>
        <status value="active"/>
        <for>
        <reference value="urn:uuid:c984b49f-f53d-468f-af0f-6f12ecc678e9"/>
        </for>
        <role>
          <coding>
            <system value="http://hl7.org/fhir/ingredient-role"/>
            <code value="100000072082"/>
            <display value="Excipient"/>
          </coding>
        </role>
        <manufacturer>
        </manufacturer>
        <substance>
          <code>
            <concept>
              <coding>
                <system value="https://gsrs.ncats.nih.gov/ginas/app/beta/"/>
                <code value="6OZP39ZG8H"/>
                <display value="polysorbate 80"/>
              </coding>
            </concept>
          </code>
        </substance>
      </Ingredient>
    </resource>
  </entry>
  <entry>
    <fullUrl value="urn:uuid:7f19fe21-8a9b-4ee9-945f-872be96703ff"/>
    <resource>
      <SubstanceDefinition>
        <id value="7f19fe21-8a9b-4ee9-945f-872be96703ff"/>
        <meta>
          <profile value="http://hl7.org/fhir/uv/emedicinal-product-info/StructureDefinition/SubstanceDefinition-uv-epi"/>
        </meta>
        <identifier>
          <use value="official"/>
          <system value="https://gsrs.ncats.nih.gov/ginas/app/beta"/>
          <value value="7R9A5P7H32"/>
        </identifier>
        <version value="1"/>
        <status>
          <coding>
            <system value="http://hl7.org/fhir/publication-status"/>
            <code value="active"/>
          </coding>
        </status>
        <description value="Pink, oval, debossing of 'PFE' on one side and '3CL' on the other side."/>
        <molecularWeight>
          <type>
            <text value="exact"/>
          </type>
          <amount>
            <value value="499.53"/>
          </amount>
        </molecularWeight>
        <structure>
          <molecularFormula value="C23H32F3N5O4"/>
        </structure>
        <name>
          <name value="Nirmatrelvir"/>
          <type>
            <coding>
              <system value="http://hl7.org/fhir/substance-name-type"/>
              <code value="Scientific"/>
            </coding>
            <text value="Scientific"/>
          </type>
        </name>
      </SubstanceDefinition>
    </resource>
  </entry>
  <entry>
    <fullUrl value="urn:uuid:b0846e21-502f-4e34-adbe-f73f6962ac8f"/>
    <resource>
      <SubstanceDefinition>
        <id value="b0846e21-502f-4e34-adbe-f73f6962ac8f"/>
        <meta>
          <profile value="http://hl7.org/fhir/uv/emedicinal-product-info/StructureDefinition/SubstanceDefinition-uv-epi"/>
        </meta>
        <identifier>
          <use value="official"/>
          <system value="https://gsrs.ncats.nih.gov/ginas/app/beta"/>
          <value value="O3J8G9O825"/>
        </identifier>
        <version value="1"/>
        <status>
          <coding>
            <system value="http://hl7.org/fhir/publication-status"/>
            <code value="active"/>
          </coding>
        </status>
        <description value="White to off white, capsule shaped film coated tablets, debossed with 'H' on one side and 'R9' on other side"/>
        <molecularWeight>
          <type>
            <text value="exact"/>
          </type>
          <amount>
            <value value="720.95"/>
          </amount>
        </molecularWeight>
        <structure>
          <molecularFormula value="C37H48N6O5S2"/>
        </structure>
        <name>
          <name value="Ritonavir"/>
          <type>
            <coding>
              <system value="http://hl7.org/fhir/substance-name-type"/>
              <code value="Scientific"/>
            </coding>
            <text value="Scientific"/>
          </type>
        </name>
      </SubstanceDefinition>
    </resource>
  </entry>
</Bundle>