<?xml version="1.0" encoding="UTF-8"?>

<Bundle xmlns="http://hl7.org/fhir">
  <id value="bundlepackageleaflet-fragmin-2500-5000" />
  <meta>
    <versionId value="FR 23_1"/>
    <lastUpdated value="2023-02-23T00:00:00Z" />
    <profile
      value="http://hl7.org/fhir/uv/emedicinal-product-info/StructureDefinition/Bundle-uv-epi" />
  </meta>
  <language value="en" />
  <identifier>
    <system value="https://www.mhra.gov.uk/" />
    <value value="f10c4493-d704-4b0b-9951-1d1784721684" />
  </identifier>
  <type value="document" />
  <timestamp value="2023-02-23T00:00:00Z" />

  <entry>
    <fullUrl value="urn:uuid:dd932247-d684-43ec-a668-955188969165"/>
    <resource>
      <Composition>
        <id value="dd932247-d684-43ec-a668-955188969165"/>
        <meta>
          <profile
            value="http://hl7.org/fhir/uv/emedicinal-product-info/StructureDefinition/Composition-uv-epi" />
        </meta>
        <language value="en"/>
        <version value="FR 23_1"/>
        <identifier>
          <system value="https://www.mhra.gov.uk/"/>
          <value value="3340c8bc-f5b7-4c7f-9aba-265026700b2a" />
        </identifier>
        <status value="final" />


        <contained>
          <Binary>
          <id value="image1"/>
          <contentType value="image/png"/>
          <data value= ""/>
          </Binary>
          </contained>

        <contained>
            <Binary>
            <id value="image2"/>
            <contentType value="image/png"/>
            <data value= ""/>
            </Binary>
            </contained>

        <contained>
            <Binary>
            <id value="image3"/>
            <contentType value="image/png"/>
            <data value= ""/>
            </Binary>
            </contained>

        <contained>
            <Binary>
            <id value="image4"/>
            <contentType value="image/png"/>
            <data value= ""/>
            </Binary>
            </contained>

        <contained>
            <Binary>
            <id value="image5"/>
            <contentType value="image/png"/>
            <data value= ""/>
            </Binary>
            </contained>

        <contained>
            <Binary>
            <id value="image6"/>
            <contentType value="image/png"/>
            <data value= ""/>
            </Binary>
            </contained>

        <contained>
            <Binary>
            <id value="image7"/>
            <contentType value="image/png"/>
            <data value= ""/>
            </Binary>
            </contained>

            <extension url="http://hl7.org/fhir">
              <valueReference>
              <reference value="#image1"/>
              </valueReference>
              </extension>
            <extension url="http://hl7.org/fhir">
                <valueReference>
                <reference value="#image2"/>
                </valueReference>
                </extension>
            <extension url="http://hl7.org/fhir">
                <valueReference>
                <reference value="#image3"/>
                </valueReference>
                </extension>
            <extension url="http://hl7.org/fhir">
                <valueReference>
                <reference value="#image4"/>
                </valueReference>
                </extension>
            <extension url="http://hl7.org/fhir">
                <valueReference>
                <reference value="#image5"/>
                </valueReference>
                </extension>
            <extension url="http://hl7.org/fhir">
                <valueReference>
                <reference value="#image6"/>
                </valueReference>
                </extension>
            <extension url="http://hl7.org/fhir">
                <valueReference>
                <reference value="#image7"/>
                </valueReference>
                </extension>

        <type>
          <coding>
            <system value="https://spor.ema.europa.eu/rmswi/#/lists/200000029659/terms" />
            <code value="200000029894" />
          </coding>
          <text value="PACKAGE LEAFLET" />
        </type>
        <subject>
          <reference value="urn:uuid:62f1b256-30f5-480f-a113-650f5ec3bbb3" />
        </subject>
        <subject>
          <reference value="urn:uuid:ffc4e16d-4695-4b6c-bcf5-fe21da64382c" />
        </subject>
        <date value="2023-02-23T00:00:00Z" />
        <author>
          <reference value="urn:uuid:55958e48-6088-44d0-9639-63b247f26679" />
        </author>
        <title centered="true" value="Fragmin 2,500 IU/0.2 ml &#038; 5,000 IU/0.2 ml Solution for Injection" />
        <section>
          <title centered="true" value="Package leaflet: Information for the user" />

          <code>
            <coding>
              <system value="https://spor.ema.europa.eu/rmswi/#/lists/200000029659/terms" />
              <code value="200000029894" />
            </coding>
            <text value="Package leaflet: Information for the patient" />
          </code>
          <text>
            <status value="generated" />
            <div xmlns="http://www.w3.org/1999/xhtml">
              <p style="text-align: center;" class="2500IU"><b>Fragmin<sup></sup> 2,500 IU/0.2 ml Solution for Injection</b></p>
              <p style="text-align: center;" class="5000IU"><b>Fragmin<sup></sup> 5,000 IU/0.2 ml Solution for Injection</b></p>
              <p style="text-align: center;">dalteparin sodium</p>
              <p>
                <b>Read all of this leaflet carefully before you start taking this medicine because it contains important information for you.</b>
              </p>
              <ul>
                <li>Keep this leaflet. You may need to read it again.</li>
                <li>If you have any further questions, ask your doctor, pharmacist or nurse.</li>
                <li>This medicine has been prescribed for you only. Do not pass it on to others. It may harm them, even if their signs of illness are the same as yours.</li>
                <li>If you get any side effects, talk to your doctor, pharmacist or nurse. This includes any possible side effects not listed in this leaflet. See <a href="#7a996bcf-6f26-4e0e-ba8b-cb1c23c286b8">section 4</a>.</li>
              </ul>
            </div>
          </text>
          <section>
            <title value="What is in this leaflet" />
            <code>
              <coding>
                <system value="https://spor.ema.europa.eu" />
                <code value="100000155538" />
              </coding>
              <text value="What is in this leaflet" />
            </code>
            <text>
              <status value="generated" />
              <div xmlns="http://www.w3.org/1999/xhtml">
                <ol>
                    <li><a href="#3699e80b-c465-43bd-b3ef-81aa0fafb1da">What Fragmin is and what it is used for</a></li>
                    <li><a href="#fac1bece-2bda-46e1-8cfa-fb763181fc5a">What you need to know before you are given or use Fragmin</a></li>
                    <li><a href="#72ca36ee-dbac-4447-9867-157bdccb7a62">How Fragmin is given to you</a></li>
                    <li><a href="#b0371c6d-9fd3-44d4-b2ab-98d0b68ee2a6">Possible side effects</a></li>
                    <li><a href="#94d8f92f-26c6-4076-858b-1e3ed619677c">How to store Fragmin</a></li>
                    <li><a href="#d2a6e812-7119-49ca-93a2-37bb3c548ce8">Contents of the pack and other information</a></li>
                </ol>
              </div>
            </text>
          </section>
        </section>

        <section id="3699e80b-c465-43bd-b3ef-81aa0fafb1da">
          <title value="1. What Fragmin is and what it is used for" />
          <code>
            <coding>
              <system value="https://spor.ema.europa.eu/rmswi" />
              <code value="200000029895" />
            </coding>
            <text value="1. What X is and what it is used for" />
          </code>
          <text>
            <status value="generated" />
            <div xmlns="http://www.w3.org/1999/xhtml">
              <p><b>1. What Fragmin is and what it is used for</b></p>
              <p>Fragmin is a solution for injection. Its active ingredient is dalteparin sodium.</p>
              <p>Fragmin belongs to a group of medicines called low molecular weight heparins or anti-thrombotics, which help prevent the formation of blood clots by thinning the blood.</p>
              <p>Venous thromboembolism is a condition where blood clots develop in the legs (deep vein thrombosis) or the lungs (pulmonary embolism), e.g. after surgery, prolonged bed rest or in patients with certain types of cancer.</p>
              <ul>
                <li class="adults">Fragmin is used in adults above 18 years old to prevent blood clots (venous thromboembolism) forming before and after an operation or if you are bedridden due to illness and to prevent their recurrence.</li>
              </ul>
              <p class="adults">The 5000 IU product can also be used in adults above 18 years old for:</p>
              <ul>
                <li class="adults">Prevention of deep vein thrombosis in patients bedridden due to a medical condition but not limited to, for example heart failure and respiratory failure.</li>
                <li>Treatment of patients with solid tumours who suffer from low platelet counts.</li>
              </ul>
              <p class="children">Fragmin is indicated in children for:</p>
              <ul>
                <li class="children">Treatment of blood clots in the veins (venous thromboembolism or VTE) in children and adolescents 1 month of age and older.</li>
              </ul>
              <p>Ask your doctor if you are unsure why you have been given Fragmin.</p>
            </div>
          </text>
        </section>

        <section id="fac1bece-2bda-46e1-8cfa-fb763181fc5a">
          <title value="2. What you need to know before you are given or use Fragmin" />
          <code>
            <coding>
              <system value="https://spor.ema.europa.eu/rmswi/#/lists/200000029659/terms" />
              <code value="200000029896" />
            </coding>
            <text value="2. What you need to know before you take X" />
          </code>

          <section>
            <title value="You should not be given Fragmin" />
            <code>
              <coding>
                <system value="https://spor.ema.europa.eu/rmswi/#/lists/200000029659/terms" />
                <code value="200000029897" />
              </coding>
              <text value="Do not &amp;lt;take&amp;gt; &amp;lt;use&amp;gt; X" />
            </code>
            <text>
              <status value="generated" />
              <div xmlns="http://www.w3.org/1999/xhtml">
                <p><b>You should not be given Fragmin:</b></p>
                <ul>
                <li>if you are allergic (hypersensitive) to the active ingredient dalteparin sodium or a similar product or any of the other ingredients of this medicine (listed in <a href="#d2a6e812-7119-49ca-93a2-37bb3c548ce8">section 6</a>).</li>
                <li class="ulcer">if you have an active stomach ulcer or ulcer of the duodenum (small intestine).</li>
                <li class="brainhaemorrhage">if you have suffered from a brain haemorrhage (bleeding in your brain).</li>
                <li><span class="pericardialeffusion"><span class="pleuraleffusion">if you have fluid mixed with blood that appears around heart and lungs.</span></span></li>
                <li class="bleeding">if you suffer from any condition which may cause you to bleed more easily (e.g. haemophilia, liver failure). Ask your doctor if you are unsure</li>
                <li class="septicendocarditis">if you have a condition called septic endocarditis (an infection and inflammation of the lining of the heart and heart valves). Your doctor will have told you if you have this.</li>
                <li class="heparininducedthrombocytopenia">if you have had a condition called heparin-induced thrombocytopenia (a decrease in the number of clotting cells (platelets) in your blood caused by heparin, which may cause you to bruise and bleed more easily). Your doctor will have told you if you have this. 
                </li>
                <li class="injuryoperation">if you have an injury to, or have had an operation involving your spine, head, eyes or ears. </li>
                </ul>
                <p class="anaesthetic">If you are receiving Fragmin to treat blood clots, you should not have a local, spinal or epidural anaesthetic.</p>
                <p class="cancer">If you are given this medicine as part of your cancer treatment your doctor will check that you weigh more than 40 kg, and that you have not had a stroke within the last 3 months.</p>
              </div>
            </text>
          </section>

          <section>
            <title value="Warnings and precautions" />
            <code>
              <coding>
                <system value="https://spor.ema.europa.eu/rmswi/#/lists/200000029659/terms" />
                <code value="200000029898" />
              </coding>
              <text value="Warnings and precautions" />
            </code>
            <text>
              <status value="generated" />
              <div xmlns="http://www.w3.org/1999/xhtml">
                <p><b>Warnings and precautions</b></p> 
                <p>Talk to your doctor, pharmacist or nurse before you are given or use Fragmin:</p>
                <p> if you have conditions which make you more susceptible to bleeding e.g.:</p>
                <ul>
                  <li>after an operation or trauma</li>
                  <li>a stroke caused by a bleed</li>
                  <li>a brain tumour</li>
                  <li>severe liver or kidney failure</li>
                  <li>abnormal or low numbers of platelets (clotting cells)</li>
                  <li>eye disease caused by blood pressure or diabetes</li>
                  <li>taking other medicines that thin the blood (e.g. aspirin, warfarin, dipyridamole)</li>
                  <li>uncontrolled high blood pressure</li>
                </ul>
                <p> if you are allergic or suspect you have a possible allergy to latex (natural rubber) or if the needle 
                  cover of Fragmin prefilled syringes will be handled by someone with a known or possible allergy to 
                  latex (natural rubber). The needle cover of Fragmin prefilled syringes may contain latex (natural rubber) which may cause severe allergic reactions in individuals with allergy to latex (natural rubber).
                  </p>
                <p> if you have been told by your doctor that you have a lot of potassium in your blood or have a low blood pH. Your doctor will monitor your blood regularly before and during treatment. </p>
                <p> if you have ever had an operation to insert an artificial heart valve. </p>
                <p> if you need to have any other injections.</p>
                <p>You may need to have blood tests to monitor the effects of Fragmin:</p>
                <ul>
                  <li>if you have kidney failure or liver problems</li>
                  <li>if you are very thin or morbidly obese</li>
                  <li>if you are pregnant</li>
                  <li>if you are at increased risk of bleeding or rethrombosis (more blood clots)</li>
                  <li>if you are a child</li>
                  <li>if you have blood problems due to cancer treatment</li>
                </ul>
               </div>
            </text>
          </section>
          
          <section>
            <title value="Children and adolescents" />
            <code>
              <coding>
                <system value="https://spor.ema.europa.eu/rmswi/#/lists/200000029659/terms" />
                <code value="200000029899" />
              </coding>
              <text value="Children &amp;lt;and adolescents&amp;gt;" />
            </code>
            <text>
              <status value="generated" />
              <div xmlns="http://www.w3.org/1999/xhtml">
                <p class="children"><b>Children and adolescents</b></p>
                <p class="children">Fragmin is not used for new born babies under 1 month of age.</p>
              </div>
            </text>
          </section>

          <section>
            <title value="Other medicines and Fragmin" />
            <code>
              <coding>
                <system value="https://spor.ema.europa.eu/rmswi/#/lists/200000029659/terms" />
                <code value="200000029900" />
              </coding>
              <text value="Other medicines and X" />
            </code>
            <text>
              <status value="generated" />
              <div xmlns="http://www.w3.org/1999/xhtml">
                <p><b>Other medicines and Fragmin</b></p>
                <p>Tell your doctor, pharmacist or nurse if you are taking, have recently taken or are planning to take or use any other medicines. This includes medicines that you have bought for yourself.</p>
                <p>Some medicines can affect the way Fragmin works, or Fragmin itself can reduce the effectiveness of other medicines taken at the same time. </p>
                <p>Medicines that <b>increase</b> the effect of Fragmin include: </p>
                <ul>
                  <li class="aspirindipyridamoleglycoproteinreceptorantagonistswarfarin">Those used to thin your blood (e.g. aspirin, dipyridamole, glycoprotein receptor antagonists and warfarin).</li>
                  <li class="nsaidsindometacin">Medicines called non-steroidal anti-inflammatory drugs (NSAIDs) used to reduce pain and inflammation (e.g. indometacin). </li>
                  <li class="sulfinpyrazoneprobenecid">Some medicines for gout (e.g. sulfinpyrazone and probenecid). </li>
                  <li class="Etacrynicacid">Etacrynic acid (a water retention tablet (diuretic)). </li>
                  <li class="dextrans">Solutions given to increase the blood volume (e.g. dextrans). </li>
                  <li class="cytostatics">Medicines known as cytostatics (used in cancer treatment). </li>
                  <li class="TPAtissueplasminogenactivator">Thrombolytic medications for treating transmural heart attack (e.g. TPA-tissue plasminogen activator). 
                 </li>
                </ul>
                <p>Medicines that can <b>reduce</b> the effect of Fragmin include: </p>
                <ul>
                  <li class="antihistamines">Those for allergy and hay fever (e.g. antihistamines). </li>
                  <li class="digoxin digitoxin">Those used for heart or circulation problems (e.g. digoxin or digitoxin). </li>
                  <li class="tetracyclines">Antibiotics known as tetracyclines which are used to treat bacterial infections. </li>
                  <li class="vitaminC">Vitamin C (e.g. some vitamin supplements). </li>
                </ul>
                <p>Other medicines that may interfere with Fragmin include:</p>
                <ul>
                  <li class="intravenous nitroglycerine">Those used to treat angina (intravenous nitroglycerine).</li>
                  <li class="penicillin">Antibiotics such as high dose penicillin which are used to treat bacterial infections.</li>
                  <li class="quinine">Anti-malarials (e.g. quinine). </li>
                  <li class="tobacco">Tobacco smoking. </li>
                </ul>
                <p class="aspirin">Please note that if you are being treated with Fragmin for unstable coronary artery disease your doctor may adjust your dose of aspirin accordingly.</p>
                <p class="lowmolecularweightheparins anti-thrombotics">Please tell your doctor or pharmacist if you are taking or have recently taken any other low molecular weight heparins or anti-thrombotics.</p>
              </div>
            </text>
          </section>
      
          <section>
            <title value="Pregnancy and breast-feeding" />
            <code>
              <coding>
                <system value="https://spor.ema.europa.eu/rmswi/#/lists/200000029659/terms" />
                <code value="200000029902" />
              </coding>
              <text
                value="Pregnancy &amp;lt;and&amp;gt; &amp;lt;,&amp;gt; breast-feeding &amp;lt;and fertility&amp;gt;" />
            </code>
            <text>
              <status value="generated" />
              <div xmlns="http://www.w3.org/1999/xhtml">
              <p class="Female"><b>Pregnancy and breast-feeding</b></p>
              <p class="pregnancy">Fragmin has not been found to cause harmful effects during pregnancy. The possibility of harm to the baby appears remote. Tell your doctor if you are pregnant and they will advise you. 
                Fragmin is not recommended for the prevention of blood clots on artificial heart valves during pregnancy.
                </p>
              <p>If you are receiving Fragmin to treat blood clots, you should not have a local, spinal or epidural anaesthetic.</p>
              <p class="breastfeeding">Ask your doctor or pharmacist for advice before being given or using this medicine whilst breast-feeding. </p>
              </div>
            </text>
          </section>
          
          <section>
            <title value="Driving and using machines" />
            <code>
              <coding>
                <system value="https://spor.ema.europa.eu/rmswi/#/lists/200000029659/terms" />
                <code value="200000029903" />
              </coding>
              <text value="Driving and using machines" />
            </code>
            <text>
              <status value="generated" />
              <div xmlns="http://www.w3.org/1999/xhtml">
                <p><b>Driving and using machines</b></p>
                <p>Fragmin does not affect the ability to drive and operate machinery.</p>
              </div>
            </text>
          </section>

          <section>
            <title value="Fragmin contains sodium" />
            <code>
              <coding>
                <system value="https://spor.ema.europa.eu/rmswi/#/lists/200000029659/terms" />
                <code value="200000029904" />
              </coding>
              <text value="X contains {name the excipient(s)}" />
            </code>
            <text>
              <status value="generated" />
              <div xmlns="http://www.w3.org/1999/xhtml">
                <p class="Sodium">Fragmin 2,500 IU (anti-Xa)/0.2 ml and 5,000 IU (anti-Xa)/0.2 ml contain less than 1 mmol (23 mg) of sodium per pre-filled syringe, i.e. that is to say essentially "sodium-free". Patients on low sodium diets and parents whose children receive treatment with Fragmin can be informed that these medicinal product formulations are essentially sodium free.</p>
                <p class="Sodium">This product may be prepared with a solution that contains sodium.  Tell your doctor if you or your child are on a low salt (sodium) diet.</p>
              </div>
            </text>
          </section>

        </section>

          <section id="72ca36ee-dbac-4447-9867-157bdccb7a62">
          <title value="3. How Fragmin is given to you " />
          <code>
            <coding>
              <system value="https://spor.ema.europa.eu/rmswi/#/lists/200000029659/terms" />
              <code value="200000029905" />
            </coding>
            <text value="3. How to &amp;lt;take&amp;gt; &amp;lt;use&amp;gt; X" />
          </code>
          <text>
            <status value="generated" />
            <div xmlns="http://www.w3.org/1999/xhtml">
              <p><b>3. How Fragmin is given to you </b></p>
              <p>Your medicine will usually be administered by a doctor or nurse or you may be shown how to give the injection yourself at home (see section on How to Inject Fragmin). The amount of Fragmin you receive will depend on your body weight.</p>
              <p>Fragmin is given as a single, once daily, subcutaneous injection, which means it is injected beneath the skin.  It is usually injected into a skin fold in your abdomen (stomach), or the outer aspects of your thigh. It should not be injected into your muscles.</p>
              <p class="adults"><b>Use in adults and the elderly</b></p>
              <p class="adults"><b>To prevent blood clots (venous thromboprophylaxis)</b></p>
              <p class="adults"><b> Patients with a moderate risk of developing a clot:</b></p>
              <p class="adults">The recommended dose is 2,500 IU one to two hours before the operation, then 2,500 IU each morning. This is continued for five to seven days, or until you are fully able to move about.</p>
              <p class="adults"><b> Patients with a greater risk of developing a clot e.g. those who have had clots in the past:</b></p>
              <p class="adults">For this type of patient, the recommended dose is 2,500 IU one to two hours before the operation, the same dose 8 to 12 hours later, then 5,000 IU each morning. As an alternative, 5,000 IU may be given the evening before the operation, then 5,000 IU on following evenings. The first dose (2,500 IU) may also be given as soon as possible after your operation and is to be continued for five to seven days, or until you are able to move about.</p>
              <p class="adults"><b> Hip Replacement Surgery</b></p>
              <p class="adults">After a hip operation, your doctor may decide to continue treating you with Fragmin for five weeks using a dose of 5,000 IU every evening. If you have an artificial heart valve, the normal dose for prevention of blood clots is not sufficient. Your doctor will discuss this with you.</p>
              <p class="adults"> The maximum dose you will be given in a 12 hour period is 10,000 IU.</p>
              <p class="adults"> If you are bedridden due to illness, the dose of Fragmin given will be 5,000 IU daily. The length of treatment will be up to 14 days, depending on your illness.</p>
              <p class="adults">These are typical doses for adults, including elderly patients. Your doctor will work out the right dose for you. Some of the liquid in the syringe may have to be expelled before the injection is given.</p>
              <p class="adults"><b>To treat blood clots (venous thromboembolism) in certain types of cancer and prevent recurrence</b></p>
              <p class="adults">The usual dose used to treat venous thromboembolism in cancer is 200 IU (units) for every kilogram you weigh (see table below) once daily during the first month after a thromboembolic event (blood clot), followed by 150 IU for every kilogram you weigh (during months 2-6).</p>
              <p class="adults"><b>Dose of Fragmin during month 1</b></p>
              <table class="adults">
                <thead>
                  <tr>
                    <th>Body weight (kg)</th>
                    <th>Dose (IU)</th>
                  </tr>
                </thead>
                <tbody>
                  <tr>
                    <td>&lt; 46</td>
                    <td>7,500</td>
                  </tr>
                  <tr>
                    <td>46-56</td>
                    <td>10,000</td>
                  </tr>
                  <tr>
                    <td>57-68</td>
                    <td>12,500</td>
                  </tr>
                  <tr>
                    <td>69-82</td>
                    <td>15,000</td>
                  </tr>
                  <tr>
                    <td>&#8806; 83</td>
                    <td>18,000</td>
                  </tr>
                </tbody>
              </table>
              <p class="adults"><b>Dose of Fragmin during months 2-6</b></p>
              <table class="adults">
                <thead>
                  <tr>
                    <th>Body weight (kg)</th>
                    <th>Dose (IU)</th>
                  </tr>
                </thead>
                <tbody>
                  <tr>
                    <td>&#8804; 56</td>
                    <td>7,500</td>
                  </tr>
                  <tr>
                    <td>57 to 68</td>
                    <td>10,000</td>
                  </tr>
                  <tr>
                    <td>69 to 82</td>
                    <td>12,500</td>
                  </tr>
                  <tr>
                    <td>83 to 98</td>
                    <td>15,000</td>
                  </tr>
                  <tr>
                    <td>&#8806; 99</td>
                    <td>18,000</td>
                  </tr>
                </tbody>
              </table>
              <p class="adults">This treatment course is not recommended for patients weighing less than 40 kg.</p>
              <p class="adults">The maximum daily dose is 18,000 IU. The recommended duration of treatment is 6 months. If you are suffering from severe kidney disease or a decreased platelet count (clotting cells) caused by chemotherapy or another condition with an elevated bleeding risk, your doctor will adjust this dose accordingly. </p>
              <p class="adults">In some cases of decreased platelet count (clotting cells), your doctor may interrupt your treatment with Fragmin for a short period.</p>
              <p class="adults">Medical staff may take blood samples during your treatment to monitor the effects of Fragmin.</p>
              </div>
          </text>
        </section>

          <section>
            <title value="Use in Children and Adolescents"/>
            <code>
              <coding>
                <system value="https://spor.ema.europa.eu/rmswi/#/lists/200000029659/terms" />
                <code value="200000029906" />
              </coding>
              <text value="Use in children &amp;lt;and adolescents&amp;gt;" />
            </code>
            <text>
              <status value="generated" />
              <div xmlns="http://www.w3.org/1999/xhtml">
                <p class="Children"><b>Use in Children and Adolescents</b></p>
                <p class="Children"><b>Treatment of blood clots in the veins (Symptomatic Venous Thromboembolism - VTE)</b></p>
                <p class="Children">The recommended dose depends on the childs body weight and age group and will be calculated by your doctor. Your doctor will advise you about the individualised dose of Fragmin according to these criteria. Do not change the dosage and treatment schedule without consulting your doctor.</p>
                <p class="Children">The following table shows the recommended starting dose for children and adolescents depending on their age:</p>
                <p class="Children"><b>Children 1 month to less than 2 years:</b> 150 IU/kg twice daily.</p>
                <p class="Children"><b>Children 2 years to less than 8 years:</b> 125 IU/kg twice daily.</p>
                <p class="Children"><b>Children 8 years to less than 18 years:</b> 100 IU/kg twice daily.</p>
                <p class="Children">The effect of Fragmin will be monitored after the initial dose and subsequent dose adjustment made using a blood test.</p>
                <p><b>How to Inject Fragmin</b> </p>
                <p>Fragmin is administered under the skin (subcutaneously). This section of the leaflet explains how you should inject Fragmin to yourself or to your child. You should follow these instructions only after you have been trained by your doctor. If you are not sure what to do, talk to your doctor immediately. You should inject (or give) the dose of Fragmin at the times recommended by your doctor. </p>
                <p>When dilution is required before administering Fragmin to children, it should be performed by a healthcare professional. You should follow your doctors instructions on how and when to inject the diluted drug that is provided to you.</p>
                <p><b><u>Please follow the steps explained below</u></b></p>
                <p><b>Step 1: How you prepare your syringe for injection will depend on specific Fragmin presentation that you will be using </b></p>
                <p><b>If you are using a Prefilled syringe with needle trap:</b></p>
                <p>The Needle-Trap safety system is specially designed to help prevent needle accidents after correct use of Fragmin. It consists of a plastic safety device attached to the label stuck on the syringe. It is used to avoid accidental punctures after the proper injection of Fragmin. The Needle-Trap consists of a plastic tab (gripper) lying parallel along the needle, firmly attached to the label on the syringe barrel.
                  The safety system requires the following actions in order to be activated: Pick up the syringe, grasp the tip of the plastic needle catcher and bend it away from the shield (see Figure 1).
                  </p>
                <p>Figure 1</p>
                <p>
                  <img src="#image1"
                  alt="Figure 1"
                  style="width:1.5in;height:1.5in"/> 
                </p>

                <p>Remove the grey rubber cover by pulling it straight off (see Figure 2).</p>
                <p>Figure 1</p>
                <p>
                  <img src="#image2"
                  alt="Figure 2"
                  style="width:1.5in;height:1.5in"/> 
                </p>

                <p>You will notice an air bubble in the syringe. It is supposed to be there and you can just ignore it.  It is important not to press the plunger just yet as some of the medicine may be lost. The air bubble in the disposable syringes should not be pushed out before injecting, as this may lead to loss of medicine and therefore a reduced dose.</p>
                <p>You are now ready to inject. Continue to Step 2.</p>
                <p><b>Step 2: Choosing and preparing the subcutaneous injection area</b></p>
                <p>Choose one of the recommended injection sites below (see shaded areas Figure 3):</p>
                <p>A U shaped area around the navel.</p>  
                <p>Side of the middle thighs.</p>
                <p>Figure 3</p>
                <p>
                  <img src="#image3"
                  alt="Figure 3"
                  style="width:1.6in;height:3in"/> 
                </p>

                <lu>
                  <li>Use a different site to inject each time a dose is given.</li>
                  <li>Do not inject into areas where the skin is tender, bruised, red, or hard. Avoid areas with scars.</li>
                  <li>If you or the child have psoriasis, do not inject directly into any raised, thick, red, or scaly skin patches (psoriasis skin lesions).</li>
                  <li>Wash and dry your hands.</li>
                  <li>Clean the injection site with a new alcohol swab, using a circular motion. Allow the skin to dry thoroughly. Do not touch this area again before giving the injection.</li>
                </lu>
                <p><b>Step 3: Getting the right position</b></p>
                <p>You or your child should be sitting or lying down for subcutaneous injection administration. If you are self-injecting, get yourself in a comfortable sitting down position where you can see your stomach (see Figure 4).</p>
                <p>Figure 4</p>
                <p>
                  <img src="#image4"
                  alt="Figure 4"
                  style="width:4in;height:2.5in"/> 
                </p>

                <p><b>Step 4:</b></p>
                <p>Using the thumb and forefinger, lift up a fold of skin with one hand. With the other hand, hold the syringe like a pencil. This will be the injection site. </p>
                <p><b>Step 5:</b></p>
                <p><b>If you are injecting Fragmin to an adult or yourself,</b>hold the syringe above the folded skin keeping it at a right angle (i.e. vertically as in the diagram and not at an angle).  Insert the needle into the skin until the needle is fully inserted (see Figure 5).</p>
                <p>Figure 5</p>
                <p>
                  <img src="#image5"
                  alt="Figure 5"
                  style="width:3in;height:3in"/> 
                </p>

                <p><b>If you are injecting Fragmin to a child,</b>push the needle all the way into the skin with a quick, short motion, at an angle between 45<sup></sup> and 90<sup></sup> (see Figure 6)</p>
                <p>Figure 6</p>
                <p>
                  <img src="#image6"
                  alt="Figure 6"
                  style="width:3.5in;height:3in"/> 
                </p>

                <p><b>Step 6:</b></p>
                <p>Push the plunger all the way down at a slow, steady rate to deliver the correct dose.  Keep pinching the fold of skin while you are injecting and then release the fold of skin and pull the needle out. </p>
                <p>If there is any oozing of blood at the injection site, apply gentle pressure.  Do not rub the injection site as this may encourage bruising.</p>
                <p>Press a cotton ball over the injection site for 10 seconds. Slight bleeding may occur. Do not rub the injection site. You may place a bandage over the injection site. </p>
                <p><b>Step 7: If your syringe has a needle trap, activate the needle-trap</b></p>
                <p>Place the plastic catcher against a hard, stable surface and with one hand pivot the syringe barrel upwards against the needle forcing the needle into the catcher where it locks in place.</p>
                <p>Continue bending the needle until the syringe exceeds a 45-degree angle with the flat surface to render it permanently unusable.</p>
                <p>
                  <img src="#image7"
                  alt="Figure 7"
                  style="width:4in;height:2in"/> 
                </p>

                <p><b>Step 8:</b></p>
                <p>Dispose of the syringe and needle into a sharps container.  Keep your sharps bin out of reach of other people. When the sharps bin is almost full, dispose of it as instructed or speak to your doctor or nurse.</p>
                </div>
            </text>
          </section>

          <section>
            <title value="If you are given more Fragmin than you should " />
            <code>
              <coding>
                <system value="https://spor.ema.europa.eu/rmswi/#/lists/200000029659/terms" />
                <code value="200000029907" />
              </coding>
              <text value="If you &amp;lt;take&amp;gt; &amp;lt;use&amp;gt; more X than you should"/>
            </code>
            <text>
              <status value="generated" />
              <div xmlns="http://www.w3.org/1999/xhtml">
                <p><b>If you are given more Fragmin than you should </b></p>
                <p>If you feel that you have been given more Fragmin than you should, inform your doctor or nursing staff immediately. Your doctor may initiate measures to decrease the risk of bleeding.</p>
              </div>
            </text>
          </section>

          <section>
            <title value="If you forget to use Fragmin" />
            <code>
              <coding>
                <system value="https://www.mhra.gov.uk/" />
                <code value="200000029908" />
              </coding>
              <text value="If you forget to &amp;lt;take&amp;gt; &amp;lt;use&amp;gt; X" />
            </code>
            <text>
              <status value="generated" />
              <div xmlns="http://www.w3.org/1999/xhtml">
                <p><b>	If you forget to use Fragmin</b></p>
                <p>Tell your doctor or pharmacist if you think that a dose has been forgotten. 
                  A double dose should not be given to make up for a forgotten dose.
                </p>
                <p>If you have any further questions on the use of this medicine, ask your doctor, pharmacist or nurse.</p>
              </div>
            </text>
          </section>

        <section id="b0371c6d-9fd3-44d4-b2ab-98d0b68ee2a6">
          <title value="4. Possible side effects" />
          <code>
            <coding>
              <system value="https://spor.ema.europa.eu/rmswi/#/lists/200000029659/terms" />
              <code value="200000029910" />
            </coding>
            <text value="4. Possible side effects" />
          </code>
          <text>
            <status value="generated" />
            <div xmlns="http://www.w3.org/1999/xhtml">
              <p><b>4. Possible side effects</b></p>
              <p>	Like all medicines, this medicine can cause side effects, although not everybody gets them</p>
              <p>Stop using Fragmin and talk to a doctor or nurse at once if you get any signs of a severe allergic reaction (such as difficulty breathing, swelling of the lips, mouth, throat or eyes).</p>
              <p>-	Common side effects (may affect up to 1 in 10 people):</p>
              <ul>
                <li>A reversible decrease in the number of clotting cells (platelets) in your blood (Type I thrombocytopenia). This may make you bruise more easily</li>
                <li>Bleeding at any site</li>
                <li>Certain substances produced by your liver may increase</li>
                <li>Pain and reactions at the injection site</li>
                <li>Haematoma  you may notice blood collecting under the skin</li>
              </ul>

              <p>-	Uncommon side effects (may affect up to 1 in 100 people):</p>  
              <ul>
                <li>Increased levels of potassium in your blood (symptoms may include temporary muscle weakness, loss of feeling and changes in your heartbeat) </li>
                <li>Red skin rash and itchiness</li>
                <li>Itching</li>
                <li>Allergic reactions</li>
                <li>Your bones may weaken and break more easily. This is known as osteoporosis and       has been seen in patients using heparin for a long time</li>
              </ul>

              <p>-  Rare side effects (may affect up to 1 in 1,000 people):</p>
              <ul>
                <li>An immune system problem resulting in a severe decrease in the number of clotting cells (platelets) in your blood (Type II thrombocytopenia)</li>
                <li>Alopecia (hair loss)</li>
                <li>Painful skin lesions</li>
              </ul>

              <p>-	Not known (frequency cannot be estimated from the available data):</p>
              <ul>
                <li>Bleeding inside or around your brain, symptoms may include sudden severe headache</li>
                <li>Bleeding behind your abdomen (stomach), symptoms may include a feeling of 	tenderness and swelling around your stomach</li>
                <li>Bruising of the spine which may lead to back pain, tingling, numbness or weakness in your legs, bowel or bladder problems</li>
              </ul>
              <p>If you have an artificial heart valve, treatment with Fragmin might not be sufficient to prevent a blood clot, and you might develop a clot in the heart valve.</p>
              <p class="Children">The adverse reactions in children are expected to be the same as in adults, however there is only a little information about the possible side effects of long-term use in children.</p>
              <p><b> If you get any side effects, talk to your doctor, pharmacist or nurse. This includes any possible side effects not listed in this leaflet.</b></p>
            </div>
          </text>

          <section>
            <title value="Reporting of side effects" />
            <code>
              <coding>
                <system value="https://spor.ema.europa.eu/rmswi/#/lists/200000029659/terms" />
                <code value="200000029912" />
              </coding>
              <text value="Reporting of side effects" />
            </code>
            <text>
              <status value="generated" />
              <div xmlns="http://www.w3.org/1999/xhtml">
                <p><b>Reporting of side effects</b></p>
                <p>If you get any side effects talk to your doctor or pharmacist. This
                  includes any possible side effects not listed in this leaflet. You can also report
                  side effects directly via the Yellow Card Scheme at <a
                    href="https://www.mhra.gov.uk/yellowcard">www.mhra.gov.uk/yellowcard</a> or
                  search for MHRA Yellow Card in the Google Play or Apple App Store. By reporting
                  side effects you can help provide more information on the safety of this medicine.</p>
              </div>
            </text>
          </section>
        </section>

        <section id="94d8f92f-26c6-4076-858b-1e3ed619677c">
          <title value="5. How to store Fragmin" />
          <code>
            <coding>
              <system value="https://spor.ema.europa.eu/rmswi/#/lists/200000029659/terms" />
              <code value="200000029913" />
            </coding>
            <text value="5. How to store X" />
          </code>
          <text>
            <status value="generated" />
            <div xmlns="http://www.w3.org/1999/xhtml">
              <p><b>5. How to store Fragmin</b></p>
              <p>Keep this medicine out of the sight and reach of children. </p>
              <p>After opening, immediate use is recommended.</p>
              <p>Fragmin should not be used after the expiry date which is printed on the label and carton. The expiry date refers to the last day of that month.</p>
              <p>Store below 25<sup></sup>C.</p>
              <p>Your doctor or nurse will store Fragmin in a safe place under the above conditions.</p>
              <p>Do not throw away any medicines via wastewater or household waste. Ask your pharmacist how to throw away medicines that you no longer use. These measures will help to protect the environment.</p>
            </div>
          </text>
        </section>

        <section id="d2a6e812-7119-49ca-93a2-37bb3c548ce8">
          <title value="6. Contents of the pack and other information" />
          <code>
            <coding>
              <system value="https://spor.ema.europa.eu/rmswi/#/lists/200000029659/terms" />
              <code value="200000029914" />
            </coding>
            <text value="6. Contents of the pack and other information" />
          </code>
         
          <section>
            <title value="What Zoton contains" />
            <code>
              <coding>
                <system value="https://spor.ema.europa.eu/rmswi/#/lists/200000029659/terms" />
                <code value="200000029915	" />
              </coding>
              <text value="What X contains" />
            </code>
            <text>
              <status value="generated" />
              <div xmlns="http://www.w3.org/1999/xhtml">
                <p><b>6. Contents of the pack and other information</b></p>
                <p><b>What Fragmin contains</b></p>
                <p>The active ingredient in Fragmin is dalteparin sodium. Two strengths of Fragmin syringes are available, containing either 2,500 IU (International Units) or 5,000 IU of dalteparin sodium in 0.2 ml of solution.</p>
                <p>The other ingredients are water for injections and in the 2,500 IU product, sodium chloride.</p>
              </div>
            </text>
          </section>

          <section>
            <title value="What Fragmin looks like and contents of the pack" />
            <code>
              <coding>
                <system value="https://spor.ema.europa.eu/rmswi/#/lists/200000029659/terms" />
                <code value="200000029916" />
              </coding>
              <text value="What X looks like and contents of the pack" />
            </code>
            <text>
              <status value="generated" />
              <div xmlns="http://www.w3.org/1999/xhtml">
                <p><b>What Fragmin looks like and contents of the pack</b></p>
                <p>Fragmin is available as a clear, colourless or straw-coloured solution in pre-filled single dose syringes, each containing 0.2 ml of dalteparin sodium solution.</p>
                <p>10 syringes are packed in each box.</p>
              </div>
            </text>
          </section>

          <section>
            <title value="Marketing Authorization Holder and Manufacturer" />
            <code>
              <coding>
                <system value="https://spor.ema.europa.eu/rmswi/#/lists/200000029659/terms" />
                <code value="200000029917" />
              </coding>
              <text value="Marketing Authorization Holder and Manufacturer" />
            </code>
            <text>
              <status value="generated" />
              <div xmlns="http://www.w3.org/1999/xhtml">
                <p><b>Marketing Authorisation Holder</b></p>
                <p>Pfizer Limited</p>
                <p>Ramsgate Road</p>
                <p>Sandwich</p>
                <p>Kent</p>
                <p>CT13 9NJ</p>
                <p>United Kingdom</p>

                <p><b>Manufacturer</b></p>
                <p>Pfizer Manufacturing Belgium NV</p>
                <p>Rijksweg 12</p>
                <p>B-2870 Puurs</p>
                <p>Belgium</p>
                <p> </p>
                <p>Catalent France Limoges S.A.S</p>
                <p>Z.I. Nord</p>
                <p>53 rue de Dion Bouton</p>
                <p>87280 Limoges</p>
                <p>France</p>
               </div>
            </text>
          </section>

                <section>
                  <title value="This leaflet was last revised in" />
                  <code>
                    <coding>
                      <system value="https://spor.ema.europa.eu/rmswi/#/lists/200000029659/terms" />
                      <code value="200000029919" />
                    </coding>
                    <text value="This leaflet was last revised in &amp;lt;{MM/YYYY}&amp;gt; &amp;lt;{month YYYY}&amp;gt;." />
                  </code>
                  <text>
                    <status value="generated" />
                    <div xmlns="http://www.w3.org/1999/xhtml">
                    <p>	This leaflet was last revised in 09/2022.</p>
                    <p>	Ref: FR 23_1</p>
                    </div>
                  </text>
                </section>  
              </section>
       </Composition>
    </resource>
  </entry>

  <entry>
    <fullUrl value="urn:uuid:9d98a646-82ac-41f3-9442-eb44d20291ac" />
    <resource>
      <Ingredient>
        <id value="9d98a646-82ac-41f3-9442-eb44d20291ac" />
        <meta>
          <profile
            value="http://hl7.org/fhir/uv/emedicinal-product-info/StructureDefinition/Ingredient-uv-epi" />
        </meta>
        <identifier>
          <use value="official" />
          <system value="https://gsrs.ncats.nih.gov/ginas/app/beta" />
          <value value="12M44VTJ7B" />
        </identifier>
        <status value="active" />
        <for>
          <reference value="urn:uuid:6ba6f3f2-ed7e-488e-9890-d3f00f4a4e1d" />
        </for>
        <role>
          <coding>
            <system value="https://spor.ema.europa.eu/rmswi" />
            <code value="100000072072" />
            <display value="Active" />
          </coding>
        </role>
        <allergenicIndicator value="false" />
        <substance>
          <code>
            <concept>
              <coding>
                <system value="https://gsrs.ncats.nih.gov/ginas/app/beta" />
                <code value="12M44VTJ7B" />
                <display value="DALTEPARIN SODIUM" />
              </coding>
            </concept>
          </code>
          <strength>
            <presentationQuantity>
              <value value="2,500/0.2" />
              <unit value="IU/ml" />
            </presentationQuantity>
            <basis>
              <coding>
                <system value="http://terminology.hl7.org/CodeSystem/v3-RoleClass" />
                <code value="ACTIB" />
              </coding>
              <text value="active ingredient - basis of strength" />
            </basis>
          </strength>
        </substance>
      </Ingredient>
    </resource>
  </entry>

  <entry>
    <fullUrl value="urn:uuid:dc0246a9-ada3-4a05-803e-9d5e410e8995" />
    <resource>
      <Ingredient>
        <id value="dc0246a9-ada3-4a05-803e-9d5e410e8995" />
        <meta>
          <profile
            value="http://hl7.org/fhir/uv/emedicinal-product-info/StructureDefinition/Ingredient-uv-epi" />
        </meta>
        <identifier>
          <use value="official" />
          <system value="https://gsrs.ncats.nih.gov/ginas/app/beta" />
          <value value="12M44VTJ7B" />
        </identifier>
        <status value="active" />
        <for>
          <reference value="urn:uuid:6ba6f3f2-ed7e-488e-9890-d3f00f4a4e1d" />
        </for>
        <for>
          <reference value="urn:uuid:2529be70-85d4-4fd8-939f-2b998374f5db" />
        </for>
        <role>
          <coding>
            <system value="https://spor.ema.europa.eu/rmswi" />
            <code value="100000072072" />
            <display value="Active" />
          </coding>
        </role>
        <allergenicIndicator value="false" />
        <substance>
          <code>
            <concept>
              <coding>
                <system value="https://gsrs.ncats.nih.gov/ginas/app/beta" />
                <code value="12M44VTJ7B" />
                <display value="DALTEPARIN SODIUM" />
              </coding>
            </concept>
          </code>
          <strength>
            <presentationQuantity>
              <value value="5,000/0.2" />
              <unit value="IU/ml" />
            </presentationQuantity>
            <basis>
              <coding>
                <system value="http://terminology.hl7.org/CodeSystem/v3-RoleClass" />
                <code value="ACTIB" />
              </coding>
              <text value="active ingredient - basis of strength" />
            </basis>
          </strength>
        </substance>
      </Ingredient>
    </resource>
  </entry>

  <entry>
    <fullUrl value="urn:uuid:6cd1f456-6d84-4d79-8b30-4b7b7fac8e08" />
    <resource>
      <Ingredient>
        <id value="6cd1f456-6d84-4d79-8b30-4b7b7fac8e08" />
        <meta>
          <profile
            value="http://hl7.org/fhir/uv/emedicinal-product-info/StructureDefinition/Ingredient-uv-epi" />
        </meta>
        <identifier>
          <use value="official" />
          <system value="https://gsrs.ncats.nih.gov/ginas/app/beta" />
          <value value="059QF0KO0R" />
        </identifier>
        <status value="active" />
        <for>
          <reference value="urn:uuid:6ba6f3f2-ed7e-488e-9890-d3f00f4a4e1d" />
        </for>
        <for>
          <reference value="urn:uuid:2529be70-85d4-4fd8-939f-2b998374f5db" />
        </for>
        <role>
          <coding>
            <system value="https://spor.ema.europa.eu/rmswi" />
            <code value="100000072082" />
            <display value="Excipient" />
          </coding>
        </role>
        <allergenicIndicator value="false" />
        <substance>
          <code>
            <concept>
              <coding>
                <system value="https://gsrs.ncats.nih.gov/ginas/app/beta" />
                <code value="059QF0KO0R" />
                <display value="WATER FOR INJECTION" />
              </coding>
            </concept>
          </code>
        </substance>
      </Ingredient>
    </resource>
  </entry>

  <entry>
    <fullUrl value="urn:uuid:79b51ae3-c716-483e-85bf-689af118dba6" />
    <resource>
      <Ingredient>
        <id value="79b51ae3-c716-483e-85bf-689af118dba6" />
        <meta>
          <profile
            value="http://hl7.org/fhir/uv/emedicinal-product-info/StructureDefinition/Ingredient-uv-epi" />
        </meta>
        <identifier>
          <use value="official" />
          <system value="https://gsrs.ncats.nih.gov/ginas/app/beta" />
          <value value="451W47IQ8X" />
        </identifier>
        <status value="active" />
        <for>
          <reference value="urn:uuid:6ba6f3f2-ed7e-488e-9890-d3f00f4a4e1d" />
        </for>
        <role>
          <coding>
            <system value="https://spor.ema.europa.eu/rmswi" />
            <code value="100000072082" />
            <display value="Excipient" />
          </coding>
        </role>
        <allergenicIndicator value="false" />
        <substance>
          <code>
            <concept>
              <coding>
                <system value="https://gsrs.ncats.nih.gov/ginas/app/beta" />
                <code value="451W47IQ8X" />
                <display value="SODIUM CHLORIDE" />
              </coding>
            </concept>
          </code>
        </substance>
      </Ingredient>
    </resource>
  </entry>

  <entry>
    <fullUrl value="urn:uuid:6b518fce-979a-4550-b39b-a1f85dd455ed" />
    <resource>
      <SubstanceDefinition>
        <id value="6b518fce-979a-4550-b39b-a1f85dd455ed" />
        <meta>
          <profile
            value="http://hl7.org/fhir/uv/emedicinal-product-info/StructureDefinition/SubstanceDefinition-uv-epi" />
        </meta>
        <identifier>
          <use value="official" />
          <system value="https://gsrs.ncats.nih.gov/ginas/app/beta/" />
          <value value="12M44VTJ7B" />
        </identifier>
        <version value="1" />
        <status>
          <coding>
            <system value="http://hl7.org/fhir/publication-status"/>
            <code value="active"/>
          </coding>
        </status>
        <molecularWeight>
          <type>
            <text value="exact"/>
          </type>
          <amount>
            <value value="591.5"/>
          </amount>
        </molecularWeight>
        <structure>
          <molecularFormula value="C12H17NO20S3-4"/>
        </structure>
        <name>
          <name
            value="(4S,6R)-6-[(2R,4R)-4,6-dihydroxy-5-(sulfonatoamino)-2-(sulfonatooxymethyl)oxan-3-yl]oxy-3,4-dihydroxy-5-sulfonatooxyoxane-2-carboxylate" />
          <type>
            <coding>
              <system value="https://gsrs.ncats.nih.gov/ginas/app/beta/" />
              <code value="DALTEPARIN SODIUM" />
              <display value="Chemical Name" />
            </coding>
          </type>
        </name>
      </SubstanceDefinition>
    </resource>
  </entry>
  
  <entry>
    <fullUrl value="urn:uuid:6ba6f3f2-ed7e-488e-9890-d3f00f4a4e1d"/>
    <resource>
      <ManufacturedItemDefinition>
        <id value="6ba6f3f2-ed7e-488e-9890-d3f00f4a4e1d"/>
        <meta>
          <profile
            value="http://hl7.org/fhir/uv/emedicinal-product-info/StructureDefinition/ManufacturedItemDefinition-uv-epi" />
        </meta>
        <identifier>
          <use value="official"/>
          <system value="https://www.mhra.gov.uk/"/>
          <value value="fc262a1d-272d-4720-aecf-fb5e2fc9ba55"/>
        </identifier>
        <status value="active"/>
        <manufacturedDoseForm>
          <coding>
            <system value="https://spor.ema.europa.eu/rmswi/"/>
            <code value="200000016496"/>
            <display value="Solution for injection in pre-filled syringe"/>
          </coding>
        </manufacturedDoseForm>
        <unitOfPresentation>
          <coding>
            <system value="https://spor.ema.europa.eu/rmswi"/>
            <code value="200000002150"/>
            <display value="Syringe"/>
          </coding>
        </unitOfPresentation>
        <manufacturer>
          <reference value="urn:uuid:7afd0973-fa5f-44ee-98a9-a3f8e7139a25"/>
          <reference value="urn:uuid:eaa9d1f7-db78-4cec-b73a-6d5c8c344721"/>
        </manufacturer>
      </ManufacturedItemDefinition>
    </resource>
  </entry>

  <entry>
    <fullUrl value="urn:uuid:2529be70-85d4-4fd8-939f-2b998374f5db"/>
    <resource>
      <ManufacturedItemDefinition>
        <id value="2529be70-85d4-4fd8-939f-2b998374f5db"/>
        <meta>
          <profile
            value="http://hl7.org/fhir/uv/emedicinal-product-info/StructureDefinition/ManufacturedItemDefinition-uv-epi" />
        </meta>
        <identifier>
          <use value="official"/>
          <system value="https://www.mhra.gov.uk/"/>
          <value value="70c2ab1e-a358-40b7-a9a6-2909e871a51c"/>
        </identifier>
        <status value="active"/>
        <manufacturedDoseForm>
          <coding>
            <system value="https://spor.ema.europa.eu/rmswi/"/>
            <code value="200000016496"/>
            <display value="Solution for injection in pre-filled syringe"/>
          </coding>
        </manufacturedDoseForm>
        <unitOfPresentation>
          <coding>
            <system value="https://spor.ema.europa.eu/rmswi"/>
            <code value="200000002150"/>
            <display value="Syringe"/>
          </coding>
        </unitOfPresentation>
        <manufacturer>
          <reference value="urn:uuid:7afd0973-fa5f-44ee-98a9-a3f8e7139a25"/>
          <reference value="urn:uuid:eaa9d1f7-db78-4cec-b73a-6d5c8c344721"/>
        </manufacturer>
      </ManufacturedItemDefinition>
    </resource>
  </entry>

  <entry>
    <fullUrl value="urn:uuid:7d5c78ff-73e0-404e-9e0f-c615d94d5b77" />
    <resource>
      <AdministrableProductDefinition>
        <id value="7d5c78ff-73e0-404e-9e0f-c615d94d5b77" />
        <meta>
          <profile
            value="http://hl7.org/fhir/uv/emedicinal-product-info/StructureDefinition/AdministrableProductDefinition-uv-epi" />
        </meta>
        <identifier>
          <system value="https://www.who-umc.org/phpid" />
          <value value="identifier" />
        </identifier>
        <status value="active" />
        <formOf>
          <reference value="urn:uuid:62f1b256-30f5-480f-a113-650f5ec3bbb3" />
        </formOf>
        <administrableDoseForm>
          <coding>
            <system value="https://spor.ema.europa.eu/rmswi" />
            <code value="200000016496" />
            <display value="Solution for injection in pre-filled syringe" />
          </coding>
        </administrableDoseForm>
        <unitOfPresentation>
          <coding>
            <system value="https://spor.ema.europa.eu/rmswi" />
            <code value="200000002150" />
            <display value="Syringe" />
          </coding>
        </unitOfPresentation>
        <producedFrom>
          <reference value="urn:uuid:6ba6f3f2-ed7e-488e-9890-d3f00f4a4e1d" />
        </producedFrom>
        <routeOfAdministration>
          <code>
            <coding>
              <system value="https://spor.ema.europa.eu/rmswi" />
              <code value="100000073633" />
              <display value="Subcutaneous use" />
            </coding>
          </code>
          <targetSpecies>
            <code>
              <coding>
                <system value="https://spor.ema.europa.eu/rmswi" />
                <code value="100000109093" />
                <display value="Human" />
              </coding>
            </code>
          </targetSpecies>
        </routeOfAdministration>
      </AdministrableProductDefinition>
    </resource>
  </entry>

  <entry>
    <fullUrl value="urn:uuid:60ab05e9-ebb8-4fce-8427-eef29a1ca293" />
    <resource>
      <AdministrableProductDefinition>
        <id value="60ab05e9-ebb8-4fce-8427-eef29a1ca293" />
        <meta>
          <profile
            value="http://hl7.org/fhir/uv/emedicinal-product-info/StructureDefinition/AdministrableProductDefinition-uv-epi" />
        </meta>
        <identifier>
          <system value="https://www.who-umc.org/phpid" />
          <value value="identifier" />
        </identifier>
        <status value="active" />
        <formOf>
          <reference value="urn:uuid:ffc4e16d-4695-4b6c-bcf5-fe21da64382c" />
        </formOf>
        <administrableDoseForm>
          <coding>
            <system value="https://spor.ema.europa.eu/rmswi" />
            <code value="200000016496" />
            <display value="Solution for injection in pre-filled syringe" />
          </coding>
        </administrableDoseForm>
        <unitOfPresentation>
          <coding>
            <system value="https://spor.ema.europa.eu/rmswi" />
            <code value="200000002150" />
            <display value="Syringe" />
          </coding>
        </unitOfPresentation>
        <producedFrom>
          <reference value="urn:uuid:2529be70-85d4-4fd8-939f-2b998374f5db" />
        </producedFrom>
        <routeOfAdministration>
          <code>
            <coding>
              <system value="https://spor.ema.europa.eu/rmswi" />
              <code value="100000073633" />
              <display value="Subcutaneous use" />
            </coding>
          </code>
          <targetSpecies>
            <code>
              <coding>
                <system value="https://spor.ema.europa.eu/rmswi" />
                <code value="100000109093" />
                <display value="Human" />
              </coding>
            </code>
          </targetSpecies>
        </routeOfAdministration>
      </AdministrableProductDefinition>
    </resource>
  </entry>

  <entry>
    <fullUrl value="urn:uuid:2d60cb8f-e815-43ed-9972-77ef9d174493"/>
    <resource>
      <RegulatedAuthorization>
        <id value="2d60cb8f-e815-43ed-9972-77ef9d174493"/>
        <meta>
          <profile
            value="http://hl7.org/fhir/uv/emedicinal-product-info/StructureDefinition/RegulatedAuthorization-uv-epi" />
        </meta>
        <identifier>
          <use value="official"/>
          <system value="https://www.mhra.gov.uk/"/>
          <value value="8a8dad87-d1a5-4b36-ad18-2c2daf818ac4"/>
        </identifier>
        <subject>
          <reference value="urn:uuid:62f1b256-30f5-480f-a113-650f5ec3bbb3"/>
        </subject>
        <subject>
          <reference value="urn:uuid:ffc4e16d-4695-4b6c-bcf5-fe21da64382c"/>
        </subject>
        <type>
          <coding>
            <system value="https://spor.ema.europa.eu/rmswi"/>
            <code value="220000000061" />
            <display value="Marketing Authorisation" />
          </coding>
        </type>
        <region>
          <coding>
            <system value="urn:iso:std:iso:3166" />
            <code value="GBR" />
            <display value="United Kingdom" />
          </coding>
        </region>
        <status>
          <coding>
            <system value="http://hl7.org/fhir/publication-status" />
            <code value="active" />
            <display value="Active" />
          </coding>
        </status>
        <statusDate value="2023-02-23T00:00:00Z" />
        <holder>
          <reference value="urn:uuid:55958e48-6088-44d0-9639-63b247f26679"/>
        </holder>
      </RegulatedAuthorization>
    </resource>
  </entry>

  <entry>
    <fullUrl value="urn:uuid:55958e48-6088-44d0-9639-63b247f26679" />
    <resource>
      <Organization>
        <id value="55958e48-6088-44d0-9639-63b247f26679" />
        <meta>
          <profile
            value="http://hl7.org/fhir/uv/emedicinal-product-info/StructureDefinition/Organization-uv-epi" />
        </meta>
        <identifier>
          <use value="official" />
          <system value="https://spor.ema.europa.eu/omswi" />
          <value value="ORG-100000101" />
        </identifier>
        <active value="true" />
        <type>
          <coding>
            <system value="https://spor.ema.europa.eu/rmswi" />
            <code value="220000000034" />
            <display value="Marketing authorisation holder" />
          </coding>
          <text value="Marketing authorisation holder" />
        </type>
        <name value="Pfizer Limited" />
        <contact>
          <address>
            <use value="work" />
            <type value="physical" />
            <text value="Pfizer Limited Ramsgate Road, Sandwich, Kent, CT13 9NJ, United Kingdom" />
            <line value="Ramsgate Road" />
            <city value="Sandwich" />
            <country value="UK" />
          </address>
        </contact>
      </Organization>
    </resource>
  </entry>

  <entry>
    <fullUrl value="urn:uuid:7afd0973-fa5f-44ee-98a9-a3f8e7139a25" />
    <resource>
      <Organization>
        <id value="7afd0973-fa5f-44ee-98a9-a3f8e7139a25" />
        <meta>
          <profile
            value="http://hl7.org/fhir/uv/emedicinal-product-info/StructureDefinition/Organization-uv-epi" />
        </meta>
        <identifier>
          <use value="official" />
          <system value="https://spor.ema.europa.eu/omswi" />
          <value value="ORG-100005177" />
        </identifier>
        <active value="true" />
        <type>
          <coding>
            <system value="https://spor.ema.europa.eu/rmswi" />
            <code value="220000000033" />
            <display value="Manufacturer" />
          </coding>
          <text value="Manufacturer" />
        </type>
        <name value="Pfizer Manufacturing Belgium N.V." />
        <contact>
          <address>
            <use value="work" />
            <type value="physical" />
            <text value="Pfizer Manufacturing Belgium N.V., Rijksweg 12, B-2870 Puurs, Belgium"/>
            <line value="Rijksweg 12" />
            <city value="Puurs" />
            <country value="BE" />
          </address>
        </contact>
      </Organization>
    </resource>
  </entry>

  <entry>
    <fullUrl value="urn:uuid:eaa9d1f7-db78-4cec-b73a-6d5c8c344721" />
    <resource>
      <Organization>
        <id value="eaa9d1f7-db78-4cec-b73a-6d5c8c344721" />
        <meta>
          <profile
            value="http://hl7.org/fhir/uv/emedicinal-product-info/StructureDefinition/Organization-uv-epi" />
        </meta>
        <identifier>
          <use value="official" />
          <system value="https://spor.ema.europa.eu/omswi" />
          <value value="ORG-100011844" />
        </identifier>
        <active value="true" />
        <type>
          <coding>
            <system value="https://spor.ema.europa.eu/rmswi" />
            <code value="220000000033" />
            <display value="Manufacturer" />
          </coding>
          <text value="Manufacturer" />
        </type>
        <name value="Catalent France Limoges S.A.S." />
        <contact>
          <address>
            <use value="work" />
            <type value="physical" />
            <text value="Catalent France Limoges S.A.S, Zone Industrielle Nord, 53 Rue De Dion Bouton, Limoges 87280, FRANCE"/>
            <line value="Zone Industrielle Nord, 53 Rue De Dion Bouton" />
            <city value="Limoges" />
            <country value="FR" />
          </address>
        </contact>
      </Organization>
    </resource>
  </entry>

  <entry>
    <fullUrl value="urn:uuid:d7b9199a-3737-46fc-955f-a60188826591" />
    <resource>
      <PackagedProductDefinition>
        <id value="d7b9199a-3737-46fc-955f-a60188826591" />
        <meta>
          <profile
            value="http://hl7.org/fhir/uv/emedicinal-product-info/StructureDefinition/PackagedProductDefinition-uv-epi" />
        </meta>
        <identifier>
          <use value="official" />
          <system value="https://www.mhra.gov.uk/"/>
          <value value="4ab44a3b-3fdc-45be-be37-03ed0e83281d" />
        </identifier>
        <name value="	Fragmin 2,500 IU/0.2 ml Solution for Injection in pre-filled single dose syringes box of 10" />
        <type>
          <coding>
            <system value="https://spor.ema.europa.eu/rmswi"/>
            <code value="100000155527" />
            <display value="Chemical Medicinal Product"/>
          </coding>
        </type>
        <packageFor>
          <reference value="urn:uuid:62f1b256-30f5-480f-a113-650f5ec3bbb3"/>
        </packageFor>
        <status>
          <coding>
            <system value="http://hl7.org/fhir/publication-status"/>
            <code value="active" />
            <display value="Active" />
          </coding>
        </status>
        <statusDate value="2023-02-23T00:00:00Z" />
        <containedItemQuantity>
          <value value="2,500/0.2" />
          <system value="http://unitsofmeasure.org"/>
          <code value="IU/ml" />
        </containedItemQuantity>
        <manufacturer>
          <reference value="urn:uuid:7afd0973-fa5f-44ee-98a9-a3f8e7139a25"/>
          <reference value="urn:uuid:eaa9d1f7-db78-4cec-b73a-6d5c8c344721"/>
        </manufacturer>
        <packaging>
          <identifier>
            <system value="https://www.mhra.gov.uk/"/>
            <value value="5013e0a6-3908-4cca-a00c-3c4aeef31ded" />
          </identifier>
          <type>
            <coding>
              <system value="https://spor.ema.europa.eu/rmswi" />
              <code value="100000073496" />
              <display value="Blister" />
            </coding>
          </type>
          <quantity value="10" />
          <material>
            <coding>
              <system value="https://spor.ema.europa.eu/rmswi" />
              <code value="200000003208" />
              <display value="Plastic" />
            </coding>
          </material>
        </packaging>
      </PackagedProductDefinition>
    </resource>
  </entry>

   <entry>
    <fullUrl value="urn:uuid:02964d6c-7b71-4a61-b9b0-dc4427a49728"/>
    <resource>
      <PackagedProductDefinition>
        <id value="02964d6c-7b71-4a61-b9b0-dc4427a49728"/>
        <meta>
          <profile
            value="http://hl7.org/fhir/uv/emedicinal-product-info/StructureDefinition/PackagedProductDefinition-uv-epi"/>
        </meta>
        <identifier>
          <use value="official" />
          <system value="https://www.mhra.gov.uk/"/>
          <value value="fda111c4-3747-40bf-b487-edd28ede0a42" />
        </identifier>
        <name value="	Fragmin 5000 IU/0.2 ml Solution for Injection in pre-filled single dose syringes box of 10 " />
        <type>
          <coding>
            <system value="https://spor.ema.europa.eu/rmswi" />
            <code value="100000155527" />
            <display value="Chemical Medicinal Product" />
          </coding>
        </type>
        <packageFor>
          <reference value="urn:uuid:ffc4e16d-4695-4b6c-bcf5-fe21da64382c" />
        </packageFor>
        <status>
          <coding>
            <system value="http://hl7.org/fhir/publication-status" />
            <code value="active" />
            <display value="Active" />
          </coding>
        </status>
        <statusDate value="2023-02-23T00:00:00Z" />
        <containedItemQuantity>
          <value value="5000/0.2" />
          <system value="http://unitsofmeasure.org" />
          <code value="IU/ml" />
        </containedItemQuantity>
        <manufacturer>
          <reference value="urn:uuid:7afd0973-fa5f-44ee-98a9-a3f8e7139a25"/>
          <reference value="urn:uuid:eaa9d1f7-db78-4cec-b73a-6d5c8c344721"/>
        </manufacturer>
        <packaging>
          <identifier>
            <system value="https://www.mhra.gov.uk/"/>
            <value value="17966215-0822-42f7-b8a5-bac35b05514c" />
          </identifier>
          <type>
            <coding>
              <system value="https://spor.ema.europa.eu/rmswi" />
              <code value="100000073496" />
              <display value="Blister" />
            </coding>
          </type>
          <quantity value="10" />
          <material>
            <coding>
              <system value="https://spor.ema.europa.eu/rmswi" />
              <code value="200000003208" />
              <display value="Plastic" />
            </coding>
          </material>
        </packaging>
      </PackagedProductDefinition>
    </resource>
  </entry>
  
  <entry>
    <fullUrl value="urn:uuid:62f1b256-30f5-480f-a113-650f5ec3bbb3" />
    <resource>
      <MedicinalProductDefinition>
        <id value="62f1b256-30f5-480f-a113-650f5ec3bbb3" />
        <meta>
          <profile
            value="http://hl7.org/fhir/uv/emedicinal-product-info/StructureDefinition/MedicinalProductDefinition-uv-epi" />
        </meta>
        <identifier>
          <system value="https://www.mhra.gov.uk/" />
          <value value="7b8fee6b-e99c-4b49-a0ab-61509d00da86" />
        </identifier>
        <type>
          <coding>
            <system value="http://hl7.org/fhir/medicinal-product-type" />
            <code value="MedicinalProduct" />
            <display value="Medicinal Product" />
          </coding>
        </type>
        <domain>
          <coding>
            <system value="http://hl7.org/fhir/medicinal-product-domain" />
            <code value="Human" />
            <display value="Human use" />
          </coding>
        </domain>
        <status>
          <coding>
            <system value="http://hl7.org/fhir/publication-status" />
            <code value="active" />
            <display value="active" />
          </coding>
        </status>
        <legalStatusOfSupply>
          <coding>
            <system value="https://spor.ema.europa.eu/rmswi" />
            <code value="100000072084" />
            <display value="Medicinal product subject to medical prescription" />
          </coding>
        </legalStatusOfSupply>
        <name>
          <productName value="Fragmin 2,500 IU/0.2 ml Solution for Injection" />
          <type>
            <coding>
              <system value="https://spor.ema.europa.eu/lists/220000000000" />
              <code value="220000000001" />
            </coding>
            <text value="Full name" />
          </type>
          <part>
            <part value="Fragmin" />
            <type>
              <coding>
                <system value="https://spor.ema.europa.eu/lists/220000000000" />
                <code value="220000000002" />
              </coding>
              <text value="Invented name part" />
            </type>
          </part>
          <part>
            <part value="Dalteparin sodium" />
            <type>
              <coding>
                <system value="https://spor.ema.europa.eu/lists/220000000000" />
                <code value="220000000003" />
              </coding>
              <text value="Scientific name part" />
            </type>
          </part>
          <part>
            <part value="2,500 IU/0.2 ml" />
            <type>
              <coding>
                <system value="https://spor.ema.europa.eu/lists/220000000000" />
                <code value="220000000004" />
              </coding>
              <text value="Strength part" />
            </type>
          </part>
          <part>
            <part value="Solution for Injection" />
            <type>
              <coding>
                <system value="https://spor.ema.europa.eu/lists/220000000000" />
                <code value="220000000005" />
              </coding>
              <text value="Pharmaceutical dose form part" />
            </type>
          </part>
          <usage>
            <country>
              <coding>
                <system value="urn:iso:std:iso:3166" />
                <code value="GBR" />
                <display value="United Kingdom" />
              </coding>
            </country>
            <jurisdiction>
              <coding>
                <system value="urn:iso:std:iso:3166" />
                <code value="GBR" />
                <display value="United Kingdom" />
              </coding>
            </jurisdiction>
            <language>
              <coding>
                <system value="urn:ietf:bcp:47" />
                <code value="en" />
                <display value="English" />
              </coding>
            </language>
          </usage>
        </name>
      </MedicinalProductDefinition>
    </resource>
  </entry>

  <entry>
    <fullUrl value="urn:uuid:ffc4e16d-4695-4b6c-bcf5-fe21da64382c" />
    <resource>
      <MedicinalProductDefinition>
        <id value="ffc4e16d-4695-4b6c-bcf5-fe21da64382c" />
        <meta>
          <profile
            value="http://hl7.org/fhir/uv/emedicinal-product-info/StructureDefinition/MedicinalProductDefinition-uv-epi" />
        </meta>
        <identifier>
          <system value="https://www.mhra.gov.uk/" />
          <value value="ab411cb9-67d9-4467-a540-2c98fe49f5fb" />
        </identifier>
        <type>
          <coding>
            <system value="http://hl7.org/fhir/medicinal-product-type" />
            <code value="MedicinalProduct" />
            <display value="Medicinal Product" />
          </coding>
        </type>
        <domain>
          <coding>
            <system value="http://hl7.org/fhir/medicinal-product-domain" />
            <code value="Human" />
            <display value="Human use" />
          </coding>
        </domain>
        <status>
          <coding>
            <system value="http://hl7.org/fhir/publication-status" />
            <code value="active" />
            <display value="active" />
          </coding>
        </status>
        <legalStatusOfSupply>
          <coding>
            <system value="https://spor.ema.europa.eu/rmswi" />
            <code value="100000072084" />
            <display value="Medicinal product subject to medical prescription" />
          </coding>
        </legalStatusOfSupply>
        <name>
          <productName value="Fragmin 5,000 IU/0.2 ml Solution for Injection" />
          <type>
            <coding>
              <system value="https://spor.ema.europa.eu/lists/220000000000" />
              <code value="220000000001" />
            </coding>
            <text value="Full name" />
          </type>
          <part>
            <part value="Fragmin" />
            <type>
              <coding>
                <system value="https://spor.ema.europa.eu/lists/220000000000" />
                <code value="220000000002" />
              </coding>
              <text value="Invented name part" />
            </type>
          </part>
          <part>
            <part value="Dalteparin sodium" />
            <type>
              <coding>
                <system value="https://spor.ema.europa.eu/lists/220000000000" />
                <code value="220000000003" />
              </coding>
              <text value="Scientific name part" />
            </type>
          </part>
          <part>
            <part value="5,000 IU/0.2 ml" />
            <type>
              <coding>
                <system value="https://spor.ema.europa.eu/lists/220000000000" />
                <code value="220000000004" />
              </coding>
              <text value="Strength part" />
            </type>
          </part>
          <part>
            <part value="Solution for Injection" />
            <type>
              <coding>
                <system value="https://spor.ema.europa.eu/lists/220000000000" />
                <code value="220000000005" />
              </coding>
              <text value="Pharmaceutical dose form part" />
            </type>
          </part>
          <usage>
            <country>
              <coding>
                <system value="urn:iso:std:iso:3166" />
                <code value="GBR" />
                <display value="United Kingdom" />
              </coding>
            </country>
            <jurisdiction>
              <coding>
                <system value="urn:iso:std:iso:3166" />
                <code value="GBR" />
                <display value="United Kingdom" />
              </coding>
            </jurisdiction>
            <language>
              <coding>
                <system value="urn:ietf:bcp:47" />
                <code value="en" />
                <display value="English" />
              </coding>
            </language>
          </usage>
        </name>
      </MedicinalProductDefinition>
    </resource>
  </entry>

  <entry>
    <fullUrl value="urn:uuid:64fb139a-9108-41d8-aba5-2d730444598a"/>
    <resource>
      <ClinicalUseDefinition>
        <id value="64fb139a-9108-41d8-aba5-2d730444598a" />
        <meta>
        <profile value="http://hl7.org/fhir/uv/emedicinal-product-info/STU1/StructureDefinition-ClinicalUseDefinition-indication-uv-epi"/>
	</meta>
        <identifier>
	<system value="https://www.mhra.gov.uk/"/>
    	<value value="2596e70f-61b3-4067-a5b5-c63285195bd1"/>
  	</identifier>
  	<type value="indication"/>
  	<subject>
          <reference value="urn:uuid:62f1b256-30f5-480f-a113-650f5ec3bbb3" />
        </subject>
        <subject>
          <reference value="urn:uuid:ffc4e16d-4695-4b6c-bcf5-fe21da64382c" />
        </subject>
  	<indication>
	<diseaseSymptomProcedure>
      	<concept>
        <coding>
          <system value="http://terminology.hl7.org/CodeSystem/mdr"/>
          <code value="10049909"/>
          <display value="Venous thromboembolism prophylaxis"/>
        </coding>
      	</concept>
    	</diseaseSymptomProcedure>
  	</indication>
	  </ClinicalUseDefinition>
  </resource>
</entry>

<entry>
  <fullUrl value="urn:uuid:c9c096da-efec-47b5-a737-bde7d1e7c4a8" />
  <resource>
    <ClinicalUseDefinition>
      <id value="c9c096da-efec-47b5-a737-bde7d1e7c4a8" />
      <meta>
        <profile value="http://hl7.org/fhir/uv/emedicinal-product-info/STU1/StructureDefinition-ClinicalUseDefinition-contraindication-uv-epi"/>
</meta>
      <identifier>
    <system value="https://www.mhra.gov.uk/"/>
    <value value="a6ff3ffb-a076-42df-9837-86ce7360389c"/>
  </identifier>
  <type value="contraindication"/>
  <subject>
        <reference value="urn:uuid:62f1b256-30f5-480f-a113-650f5ec3bbb3" />
      </subject>
      <subject>
        <reference value="urn:uuid:ffc4e16d-4695-4b6c-bcf5-fe21da64382c" />
      </subject>
  <contraindication>
<diseaseSymptomProcedure>
      <concept>
      <coding>
        <system value="http://terminology.hl7.org/CodeSystem/mdr"/>
        <code value="10042116"/>
        <display value="Stomach ulcer"/>
      </coding>
      </concept>
    </diseaseSymptomProcedure>
  </contraindication>
</ClinicalUseDefinition>
    </resource>
</entry>

<entry>
  <fullUrl value="urn:uuid:dbb935e1-9da3-4e0d-96f6-574c6f7078cf" />
  <resource>
    <ClinicalUseDefinition>
      <id value="dbb935e1-9da3-4e0d-96f6-574c6f7078cf" />
      <meta>
        <profile value="http://hl7.org/fhir/uv/emedicinal-product-info/STU1/StructureDefinition-ClinicalUseDefinition-warning-uv-epi"/>
</meta>
      <identifier>
    <system value="https://www.mhra.gov.uk/"/>
    <value value="08cd1332-ba75-4bf1-8024-ad08e64dbf9b"/>
  </identifier>
  <type value="warning"/>
  <subject>
        <reference value="urn:uuid:62f1b256-30f5-480f-a113-650f5ec3bbb3" />
      </subject>
      <subject>
        <reference value="urn:uuid:ffc4e16d-4695-4b6c-bcf5-fe21da64382c" />
      </subject>
  <warning>
<description value="if you have conditions which make you more susceptible to bleeding e.g.: after an operation or trauma
a stroke caused by a bleed
a brain tumour
severe liver or kidney failure
abnormal or low numbers of platelets (clotting cells)
eye disease caused by blood pressure or diabetes
taking other medicines that thin the blood (e.g. aspirin, warfarin, dipyridamole)
uncontrolled high blood pressure
"/>
  </warning>
</ClinicalUseDefinition>
</resource>
</entry>

<entry>
  <fullUrl value="urn:uuid:7ffbbb86-b29a-4a99-897f-8b2be0b5aa5b" />
  <resource>
    <ClinicalUseDefinition>
      <id value="7ffbbb86-b29a-4a99-897f-8b2be0b5aa5b" />
      <meta>
        <profile
          value="http://hl7.org/fhir/uv/emedicinal-product-info/StructureDefinition/ClinicalUseDefinition-interaction-uv-epi" />
      </meta>
      <identifier>
        <use value="official" />
        <system value="https://www.mhra.gov.uk/" />
        <value value="b02f4a59-23af-40c1-9ddd-4281e42fd2b2" />
      </identifier>
      <type value="interaction" />
      <subject>
        <reference value="urn:uuid:62f1b256-30f5-480f-a113-650f5ec3bbb3" />
      </subject>
      <subject>
        <reference value="urn:uuid:ffc4e16d-4695-4b6c-bcf5-fe21da64382c" />
      </subject>
      <interaction>
        <interactant>
          <itemCodeableConcept>
            <coding>
              <system value="https://gsrs.ncats.nih.gov/ginas/app/beta" />
              <code value="R16CO5Y76E" />
              <display value="ASPIRIN" />
            </coding>
          </itemCodeableConcept>
        </interactant>
      </interaction>
    </ClinicalUseDefinition>
  </resource>
</entry>

<fullUrl value="urn:uuid:a3fb1498-f8f3-4f5f-a8a7-fdf70233de11" />
<resource>
  <ClinicalUseDefinition>
    <id value="a3fb1498-f8f3-4f5f-a8a7-fdf70233de11" />
    <meta>
      <profile value="http://hl7.org/fhir/uv/emedicinal-product-info/STU1/StructureDefinition-ClinicalUseDefinition-undesirableEffect-uv-epi.html"/>
</meta>
    <identifier>
<system value="https://www.mhra.gov.uk/"/>
  <value value="4103cbdf-8711-4306-aa70-609972e1cd17"/>
</identifier>
<type value="undesirable-effect"/>
<subject>
      <reference value="urn:uuid:62f1b256-30f5-480f-a113-650f5ec3bbb3" />
    </subject>
    <subject>
      <reference value="urn:uuid:ffc4e16d-4695-4b6c-bcf5-fe21da64382c" />
    </subject>
<undesirableEffect>
  <symptomConditionEffect>
    <concept>
    <coding>
      <system value="https://bioportal.bioontology.org/"/>
      <code value="10018852"/>
      <display value="Haematoma"/>
    </coding>
    </concept>
  </symptomConditionEffect>
<frequencyOfOccurrence>
    <coding>
    <system value="https://www.drugs.com/medical-answers/how-often-side-effects-occur-ranging-very-common-3576518/#:~:text=Common%3A%20affecting%20between%201%20in,in%2010%2C000%20people%20(%3C%200.01%25)"/>
    <code value="Common"/>
    <display value="Common"/>
  </coding>
</frequencyOfOccurrence>
</undesirableEffect>
</ClinicalUseDefinition>
</resource>
</Bundle>
